stimolazione,inizio,marker,image_file,volume,start,trigger,img,trials_5.thisRepN,trials_5.thisTrialN,trials_5.thisN,trials_5.thisIndex,trials_3.thisRepN,trials_3.thisTrialN,trials_3.thisN,trials_3.thisIndex,blocks.thisRepN,blocks.thisTrialN,blocks.thisN,blocks.thisIndex,Loop_trials.thisRepN,Loop_trials.thisTrialN,Loop_trials.thisN,Loop_trials.thisIndex,trials_2.thisRepN,trials_2.thisTrialN,trials_2.thisN,trials_2.thisIndex,trials.thisRepN,trials.thisTrialN,trials.thisN,trials.thisIndex,trials_4.thisRepN,trials_4.thisTrialN,trials_4.thisN,trials_4.thisIndex,text.started,text.stopped,key_resp.keys,key_resp.rt,key_resp.started,key_resp.stopped,text_2.started,text_2.stopped,ISI.started,ISI.stopped,polygon.started,polygon.stopped,ISI_4.started,ISI_4.stopped,image_prova.started,image_prova.stopped,p_port.started,p_port.stopped,sound_1.started,sound_1.stopped,text_3.started,text_3.stopped,key_resp_2.keys,key_resp_2.rt,key_resp_2.started,key_resp_2.stopped,text_5.started,text_5.stopped,key_resp_4.keys,key_resp_4.rt,key_resp_4.started,key_resp_4.stopped,polygon_2.started,polygon_2.stopped,ISI_5.started,ISI_5.stopped,image.started,image.stopped,sound_2.started,sound_2.stopped,p_port_2.started,p_port_2.stopped,sound_3.started,sound_3.stopped,polygon_3.started,polygon_3.stopped,text_6.started,text_6.stopped,p_port_3.started,p_port_3.stopped,text_8.started,text_8.stopped,key_resp_5.keys,key_resp_5.rt,key_resp_5.started,key_resp_5.stopped,text_4.started,text_4.stopped,key_resp_3.keys,key_resp_3.rt,key_resp_3.started,key_resp_3.stopped,text_7.started,text_7.stopped,participant,session,date,expName,psychopyVersion,frameRate,
,,,,,,,,,,,,,,,,,,,,,,,,,,,,,,,,,,,,13.692685815015466,None,space,28.917715258550743,13.692685815015466,None,,,,,,,,,,,,,,,,,,,,,,,,,,,,,,,,,,,,,,,,,,,,,,,,,,,,,,,,,,,3,001,2023_Nov_16_1138,experiment_old_ver,2020.1.3,143.72393192331958,
1,0.1,2,try/prova_happy_face.jpg,,,,,0,0,0,9,,,,,,,,,,,,,,,,,,,,,,,,,,,,,,,42.629848240700994,42.629848240700994,0.0023542961907878635,None,42.629848240700994,None,0.0023542961907878635,None,43.48966653751722,None,0.004811997567230719,0.11354011377170536,43.60155906411937,None,,,,,,,,,,,,,,,,,,,,,,,,,,,,,,,,,,,,,,,,,,,,,3,001,2023_Nov_16_1138,experiment_old_ver,2020.1.3,143.72393192331958,
0,0.95,1,try/prova_disg_image_002.jpg,,,,,0,1,1,3,,,,,,,,,,,,,,,,,,,,,,,,,,,,,,,44.29422688586146,44.29422688586146,0.005360487672078307,None,44.29422688586146,None,0.005360487672078307,None,45.30354842724046,46.10708049696041,0.0012480467194109224,0.11442252180313517,46.24635070138474,None,,,,,,,,,,,,,,,,,,,,,,,,,,,,,,,,,,,,,,,,,,,,,3,001,2023_Nov_16_1138,experiment_old_ver,2020.1.3,143.72393192331958,
1,0.1,2,try/prova_disg_image_003.jpg,,,,,0,2,2,11,,,,,,,,,,,,,,,,,,,,,,,,,,,,,,,46.34408813560185,46.34408813560185,0.005668073198648926,None,46.34408813560185,None,0.005668073198648926,None,47.249095846088494,None,0.0017760097398422658,0.09711533527115535,47.262820158366864,None,,,,,,,,,,,,,,,,,,,,,,,,,,,,,,,,,,,,,,,,,,,,,3,001,2023_Nov_16_1138,experiment_old_ver,2020.1.3,143.72393192331958,
0,0.95,1,try/prova_neutral_image.jpg,,,,,0,3,3,6,,,,,,,,,,,,,,,,,,,,,,,,,,,,,,,48.05377005560331,48.05377005560331,0.005669676877914753,None,48.05377005560331,None,0.005669676877914753,None,48.95674558475275,49.7605599018807,0.002801786626150715,0.08560964798562054,49.830054698264846,None,,,,,,,,,,,,,,,,,,,,,,,,,,,,,,,,,,,,,,,,,,,,,3,001,2023_Nov_16_1138,experiment_old_ver,2020.1.3,143.72393192331958,
1,0.5,3,try/prova_neutral_face.jpg,,,,,0,4,4,8,0,0,0,0,,,,,,,,,,,,,,,,,,,,,,,,,,,49.92783479032914,49.92783479032914,0.005695335732525564,None,49.92783479032914,None,0.005695335732525564,None,50.83088120206594,None,0.0024267503831651993,0.10520618173177354,51.23541393506757,None,51.634662162682616,None,n,8.304229349111665,51.634662162682616,None,,,,,,,,,,,,,,,,,,,,,,,,,,,,,,,,,,,,,,,3,001,2023_Nov_16_1138,experiment_old_ver,2020.1.3,143.72393192331958,
1,0.5,3,try/prova_neutral_face.jpg,,,,,0,4,4,8,,,,,,,,,,,,,,,,,,,,,,,,,,,,,,,,,,,,,,,,,,,,,,,,,,,,,,,,,,,,,,,,,,,,,,,,,,,,,,,,,,,,,,,,,3,001,2023_Nov_16_1138,experiment_old_ver,2020.1.3,143.72393192331958,
0,0.95,1,try/prova_neutral_face.jpg,,,,,0,5,5,7,,,,,,,,,,,,,,,,,,,,,,,,,,,,,,,59.94564396029091,59.94564396029091,0.005499686962139094,None,59.94564396029091,None,0.005499686962139094,None,60.849596129618476,61.653548042358125,0.00536308563187049,0.11107981443547033,61.6952148480098,None,,,,,,,,,,,,,,,,,,,,,,,,,,,,,,,,,,,,,,,,,,,,,3,001,2023_Nov_16_1138,experiment_old_ver,2020.1.3,143.72393192331958,
1,0.5,3,try/prova_disg_face_003.jpg,,,,,0,6,6,10,,,,,,,,,,,,,,,,,,,,,,,,,,,,,,,61.80681768613613,61.80681768613613,0.005691486904652265,None,61.80681768613613,None,0.005691486904652265,None,62.79838490335624,None,0.006659306852270674,0.09282687457198335,63.29119019241561,None,,,,,,,,,,,,,,,,,,,,,,,,,,,,,,,,,,,,,,,,,,,,,3,001,2023_Nov_16_1138,experiment_old_ver,2020.1.3,143.72393192331958,
1,0.1,2,try/prova_disg_face_001.jpg,,,,,0,7,7,0,0,0,0,0,,,,,,,,,,,,,,,,,,,,,,,,,,,63.6006401242912,63.6006401242912,0.005668393933774496,None,63.6006401242912,None,0.005668393933774496,None,64.59454486322556,None,0.005191812772864068,0.013937633586465381,64.72221213330276,None,65.39632892343161,None,n,2.9329633540228315,65.39632892343161,None,,,,,,,,,,,,,,,,,,,,,,,,,,,,,,,,,,,,,,,3,001,2023_Nov_16_1138,experiment_old_ver,2020.1.3,143.72393192331958,
1,0.1,2,try/prova_disg_face_001.jpg,,,,,0,7,7,0,,,,,,,,,,,,,,,,,,,,,,,,,,,,,,,,,,,,,,,,,,,,,,,,,,,,,,,,,,,,,,,,,,,,,,,,,,,,,,,,,,,,,,,,,3,001,2023_Nov_16_1138,experiment_old_ver,2020.1.3,143.72393192331958,
0,0.95,1,try/prova_happy_image.jpg,,,,,0,8,8,5,,,,,,,,,,,,,,,,,,,,,,,,,,,,,,,68.33604825404291,68.33604825404291,0.005523100666323444,None,68.33604825404291,None,0.005523100666323444,None,69.3345488146897,70.13787465136011,0.005183473645956838,0.014044117837329395,70.27704318257047,None,,,,,,,,,,,,,,,,,,,,,,,,,,,,,,,,,,,,,,,,,,,,,3,001,2023_Nov_16_1138,experiment_old_ver,2020.1.3,143.72393192331958,
1,0.5,3,try/prova_disg_image_001.jpg,,,,,0,9,9,2,,,,,,,,,,,,,,,,,,,,,,,,,,,,,,,70.3747636177959,70.3747636177959,0.005686996605618333,None,70.3747636177959,None,0.005686996605618333,None,71.18063256775895,None,0.004951581739987887,0.013589635362222907,71.67544405856397,None,,,,,,,,,,,,,,,,,,,,,,,,,,,,,,,,,,,,,,,,,,,,,3,001,2023_Nov_16_1138,experiment_old_ver,2020.1.3,143.72393192331958,
1,0.5,3,try/prova_disg_image_002.jpg,,,,,0,10,10,4,,,,,,,,,,,,,,,,,,,,,,,,,,,,,,,71.98595787072554,71.98595787072554,0.005691486904652265,None,71.98595787072554,None,0.005691486904652265,None,72.88844459868324,None,0.005666822330567811,0.11170589050379931,73.2857963803056,None,,,,,,,,,,,,,,,,,,,,,,,,,,,,,,,,,,,,,,,,,,,,,3,001,2023_Nov_16_1138,experiment_old_ver,2020.1.3,143.72393192331958,
0,0.95,1,try/prova_disg_face_002.jpg,,,,,0,11,11,1,0,0,0,0,,,,,,,,,,,,,,,,,,,,,,,,,,,73.69182560189256,73.69182560189256,0.005489102683895908,None,73.69182560189256,None,0.005489102683895908,None,74.59442907764151,75.39786620959694,0.004940355990584067,0.11025135414547549,75.44645160483314,None,75.54416113504521,None,n,2.7656903899887766,75.54416113504521,None,,,,,,,,,,,,,,,,,,,,,,,,,,,,,,,,,,,,,,,3,001,2023_Nov_16_1138,experiment_old_ver,2020.1.3,143.72393192331958,
0,0.95,1,try/prova_disg_face_002.jpg,,,,,0,11,11,1,,,,,,,,,,,,,,,,,,,,,,,,,,,,,,,,,,,,,,,,,,,,,,,,,,,,,,,,,,,,,,,,,,,,,,,,,,,,,,,,,,,,,,,,,3,001,2023_Nov_16_1138,experiment_old_ver,2020.1.3,143.72393192331958,
,,,,,,,,,,,,,,,,,,,,,,,,,,,,,,,,,,,,,,,,,,,,,,,,,,,,,,,,,,,,,,78.31659499293073,None,space,52.30253329877996,78.31659499293073,None,,,,,,,,,,,,,,,,,,,,,,,,,,,,,,,,,3,001,2023_Nov_16_1138,experiment_old_ver,2020.1.3,143.72393192331958,
,,,,0,0.95,30,stimoli/disgust_image_013.jpg,,,,,,,,,0,0,0,0,0,0,0,0,,,,,,,,,,,,,,,,,,,,,,,,,,,,,,,,,,,,,,,,,,,,,130.75962912690647,None,0.0046664156379847554,None,131.69403835742287,132.4992754580744,132.63839780334575,None,0.001223285925334494,0.013308286014762416,,,,,,,,,,,,,,,,,,,,,,,3,001,2023_Nov_16_1138,experiment_old_ver,2020.1.3,143.72393192331958,
,,,,0,0.95,30,stimoli/disgust_image_003.jpg,,,,,,,,,0,0,0,0,0,1,1,1,,,,,,,,,,,,,,,,,,,,,,,,,,,,,,,,,,,,,,,,,,,,,132.72913037007766,None,0.005013772390157101,None,133.54909469143968,134.3504393437497,134.49656783944766,None,0.0001585396512382431,0.10554811805104691,,,,,,,,,,,,,,,,,,,,,,,3,001,2023_Nov_16_1138,experiment_old_ver,2020.1.3,143.72393192331958,
,,,,0,0.95,30,stimoli/disgust_image_014.jpg,,,,,,,,,0,0,0,0,0,2,2,2,,,,,,,,,,,,,,,,,,,,,,,,,,,,,,,,,,,,,,,,,,,,,134.59434568636152,None,0.005327772631972039,None,135.3996818943424,136.20469287633205,136.3438325413302,None,0.005631220668874448,0.014251633828280319,,,,,,,,,,,,,,,,,,,,,,,3,001,2023_Nov_16_1138,experiment_old_ver,2020.1.3,143.72393192331958,
,,,,0,0.95,30,stimoli/disgust_image_018.jpg,,,,,,,,,0,0,0,0,0,3,3,3,0,0,0,0,,,,,,,,,,,,,,,,,,,,,,,,,,,,,,,,,,,,,,,,,136.4345631836486,None,0.00531269805469492,None,137.26872390815151,138.06844435492349,138.21457188841515,None,0.003933374216103402,0.012666365602854057,139.2106739875656,None,138.31226249522115,139.11332682453758,139.10636846372745,None,0.8049956187505813,0.8189123403699341,,,,,,,,,,,,,,,3,001,2023_Nov_16_1138,experiment_old_ver,2020.1.3,143.72393192331958,
,,,,0,0.95,30,stimoli/disgust_image_018.jpg,,,,,,,,,0,0,0,0,0,3,3,3,,,,,,,,,,,,,,,,,,,,,,,,,,,,,,,,,,,,,,,,,,,,,,,,,,,,,,,,,,,,,,,,,,,,,,,,,,,,,3,001,2023_Nov_16_1138,experiment_old_ver,2020.1.3,143.72393192331958,
,,,,1,0.245,32,stimoli/disgust_image_002.jpg,,,,,,,,,0,0,0,0,0,4,4,4,,,,,,,,,,,,,,,,,,,,,,,,,,,,,,,,,,,,,,,,,,,,,139.90741194522343,None,0.0050644486291275825,None,140.73014325338863,None,140.97174995317283,None,0.005522908226339496,0.014202336752532574,,,,,,,,,,,,,,,,,,,,,,,3,001,2023_Nov_16_1138,experiment_old_ver,2020.1.3,143.72393192331958,
,,,,1,0.245,32,stimoli/disgust_image_015.jpg,,,,,,,,,0,0,0,0,0,5,5,5,,,,,,,,,,,,,,,,,,,,,,,,,,,,,,,,,,,,,,,,,,,,,141.53118096164235,None,0.005171574349333241,None,142.50557342409775,None,142.78642149416675,None,0.0050478024468247895,0.07068572007665352,,,,,,,,,,,,,,,,,,,,,,,3,001,2023_Nov_16_1138,experiment_old_ver,2020.1.3,143.72393192331958,
,,,,0,0.95,30,stimoli/disgust_image_013.jpg,,,,,,,,,0,0,0,0,0,6,6,6,,,,,,,,,,,,,,,,,,,,,,,,,,,,,,,,,,,,,,,,,,,,,143.30749283476507,None,0.005113521190651227,None,144.20692904556745,145.00891965955816,145.05748837653874,None,0.005589204294665251,0.1115192223323902,,,,,,,,,,,,,,,,,,,,,,,3,001,2023_Nov_16_1138,experiment_old_ver,2020.1.3,143.72393192331958,
,,,,1,0.245,32,stimoli/disgust_image_014.jpg,,,,,,,,,0,0,0,0,0,7,7,7,0,0,0,0,,,,,,,,,,,,,,,,,,,,,,,,,,,,,,,,,,,,,,,,,145.15517834187358,None,0.005345733830836252,None,145.96025090511648,None,146.20051532603458,None,0.006403872947885247,0.016109334947941534,147.80342657975172,None,146.76525418944948,147.56665529124075,147.5597161745727,None,0.8054077641127151,0.819337315159828,,,,,,,,,,,,,,,3,001,2023_Nov_16_1138,experiment_old_ver,2020.1.3,143.72393192331958,
,,,,1,0.245,32,stimoli/disgust_image_014.jpg,,,,,,,,,0,0,0,0,0,7,7,7,,,,,,,,,,,,,,,,,,,,,,,,,,,,,,,,,,,,,,,,,,,,,,,,,,,,,,,,,,,,,,,,,,,,,,,,,,,,,3,001,2023_Nov_16_1138,experiment_old_ver,2020.1.3,143.72393192331958,
,,,,0,0.95,30,stimoli/disgust_image_019.jpg,,,,,,,,,0,0,0,0,0,8,8,8,,,,,,,,,,,,,,,,,,,,,,,,,,,,,,,,,,,,,,,,,,,,,148.36121093118527,None,0.005041676396103867,None,149.16809757549527,149.9741275347742,150.11329446230621,None,0.005459627074742457,0.11521858778814931,,,,,,,,,,,,,,,,,,,,,,,3,001,2023_Nov_16_1138,experiment_old_ver,2020.1.3,143.72393192331958,
,,,,0,0.95,30,stimoli/disgust_image_020.jpg,,,,,,,,,0,0,0,0,0,9,9,9,,,,,,,,,,,,,,,,,,,,,,,,,,,,,,,,,,,,,,,,,,,,,150.2179735790769,None,0.005020828574743064,None,151.02760796604798,151.82811485673392,151.9742170521052,None,0.004654259754715895,0.11334613282542705,,,,,,,,,,,,,,,,,,,,,,,3,001,2023_Nov_16_1138,experiment_old_ver,2020.1.3,143.72393192331958,
,,,,1,0.245,32,stimoli/disgust_image_012.jpg,,,,,,,,,0,0,0,0,0,10,10,10,,,,,0,0,0,0,,,,,,,,,,,,,,,,,,,,,,,,,,,,,,,,,,,,,152.06497688137188,None,0.0053072455475557945,None,152.89403309735735,None,153.13562536403543,None,0.001520447541224712,0.010156897484193905,,,,,,,,,153.6981319070428,None,n,2.946917280982234,153.6981319070428,None,,,,,,,,,3,001,2023_Nov_16_1138,experiment_old_ver,2020.1.3,143.72393192331958,
,,,,1,0.245,32,stimoli/disgust_image_012.jpg,,,,,,,,,0,0,0,0,0,10,10,10,,,,,,,,,,,,,,,,,,,,,,,,,,,,,,,,,,,,,,,,,,,,,,,,,,,,,,,,,,,,,,,,,,,,,,,,,,,,,3,001,2023_Nov_16_1138,experiment_old_ver,2020.1.3,143.72393192331958,
,,,,1,0.245,32,stimoli/disgust_image_004.jpg,,,,,,,,,0,0,0,0,0,11,11,11,0,0,0,0,,,,,,,,,,,,,,,,,,,,,,,,,,,,,,,,,,,,,,,,,156.65173652717658,None,0.005075032907370769,None,157.55663647047095,None,157.79123509541233,None,0.005670799452673236,0.08457755260678823,159.25955442756396,None,158.36107205263124,159.16217358728773,159.1552007933724,None,0.8049510364890011,0.8188700032587803,,,,,,,,,,,,,,,3,001,2023_Nov_16_1138,experiment_old_ver,2020.1.3,143.72393192331958,
,,,,1,0.245,32,stimoli/disgust_image_004.jpg,,,,,,,,,0,0,0,0,0,11,11,11,,,,,,,,,,,,,,,,,,,,,,,,,,,,,,,,,,,,,,,,,,,,,,,,,,,,,,,,,,,,,,,,,,,,,,,,,,,,,3,001,2023_Nov_16_1138,experiment_old_ver,2020.1.3,143.72393192331958,
,,,,0,0.95,30,stimoli/disgust_image_009.jpg,,,,,,,,,0,0,0,0,0,12,12,12,,,,,,,,,,,,,,,,,,,,,,,,,,,,,,,,,,,,,,,,,,,,,159.95630329023516,None,0.005047128901424003,None,160.8746218526212,161.67596137315923,161.81513984717577,None,0.006397682748684019,0.01570190439997532,,,,,,,,,,,,,,,,,,,,,,,3,001,2023_Nov_16_1138,experiment_old_ver,2020.1.3,143.72393192331958,
,,,,1,0.105,31,stimoli/disgust_image_019.jpg,,,,,,,,,0,0,0,0,0,13,13,13,,,,,,,,,,,,,,,,,,,,,,,,,,,,,,,,,,,,,,,,,,,,,161.8989544657952,None,0.00531847129605012,None,162.7055963887733,None,162.81932673088278,None,0.006334914774924982,0.11496296144287044,,,,,,,,,,,,,,,,,,,,,,,3,001,2023_Nov_16_1138,experiment_old_ver,2020.1.3,143.72393192331958,
,,,,1,0.105,31,stimoli/disgust_image_004.jpg,,,,,,,,,0,0,0,0,0,14,14,14,,,,,,,,,,,,,,,,,,,,,,,,,,,,,,,,,,,,,,,,,,,,,163.50602630289268,None,0.005303075983647432,None,164.30872189393176,None,164.42944138747708,None,0.006128681725385832,0.01471637984377594,,,,,,,,,,,,,,,,,,,,,,,3,001,2023_Nov_16_1138,experiment_old_ver,2020.1.3,143.72393192331958,
,,,,1,0.105,31,stimoli/disgust_image_005.jpg,,,,,,,,,0,0,0,0,0,15,15,15,0,0,0,0,,,,,,,,,,,,,,,,,,,,,,,,,,,,,,,,,,,,,,,,,165.11239669103452,None,0.005286718464049045,None,166.01679564517963,None,166.13745708556445,None,3.925804867321858e-05,0.019107636331682443,167.8586761890959,None,166.82095026287516,167.62203223265442,167.61505719358865,None,0.8050363521824693,0.8189543567450528,,,,,,,,,,,,,,,3,001,2023_Nov_16_1138,experiment_old_ver,2020.1.3,143.72393192331958,
,,,,1,0.105,31,stimoli/disgust_image_005.jpg,,,,,,,,,0,0,0,0,0,15,15,15,,,,,,,,,,,,,,,,,,,,,,,,,,,,,,,,,,,,,,,,,,,,,,,,,,,,,,,,,,,,,,,,,,,,,,,,,,,,,3,001,2023_Nov_16_1138,experiment_old_ver,2020.1.3,143.72393192331958,
,,,,0,0.95,40,stimoli/happy_image_001.jpg,,,,,,,,,0,0,0,0,0,16,16,16,,,,,,,,,,,,,,,,,,,,,,,,,,,,,,,,,,,,,,,,,,,,,168.41612505099692,None,0.005057713179667189,None,169.24498369379762,170.04902605400184,170.19516705839243,None,0.00035264889265818056,0.00903752992508089,,,,,,,,,,,,,,,,,,,,,,,3,001,2023_Nov_16_1138,experiment_old_ver,2020.1.3,143.72393192331958,
,,,,1,0.105,31,stimoli/disgust_image_003.jpg,,,,,,,,,0,0,0,0,0,17,17,17,,,,,,,,,,,,,,,,,,,,,,,,,,,,,,,,,,,,,,,,,,,,,170.2928441942995,None,0.005324244538314815,None,171.09894888499457,None,171.21964849292755,None,0.00598050183543819,0.014594821016544302,,,,,,,,,,,,,,,,,,,,,,,3,001,2023_Nov_16_1138,experiment_old_ver,2020.1.3,143.72393192331958,
,,,,0,0.95,30,stimoli/disgust_image_012.jpg,,,,,,,,,0,0,0,0,0,18,18,18,,,,,,,,,,,,,,,,,,,,,,,,,,,,,,,,,,,,,,,,,,,,,171.9041968906604,None,0.0052953783260818454,None,172.80660151028042,173.60992542253734,173.6585069689457,None,0.0035692109131559846,0.10748180145765218,,,,,,,,,,,,,,,,,,,,,,,3,001,2023_Nov_16_1138,experiment_old_ver,2020.1.3,143.72393192331958,
,,,,1,0.245,32,stimoli/disgust_image_006.jpg,,,,,,,,,0,0,0,0,0,19,19,19,0,0,0,0,,,,,,,,,,,,,,,,,,,,,,,,,,,,,,,,,,,,,,,,,173.74227315647568,None,0.0052953783260818454,None,174.64881590797722,None,174.89037289372874,None,0.0019557179475668818,0.011600560902479629,176.48850711006918,None,175.45071190493945,176.25183813624335,176.24488298279084,None,0.8050578414749907,0.8189476212955924,,,,,,,,,,,,,,,3,001,2023_Nov_16_1138,experiment_old_ver,2020.1.3,143.72393192331958,
,,,,1,0.245,32,stimoli/disgust_image_006.jpg,,,,,,,,,0,0,0,0,0,19,19,19,,,,,,,,,,,,,,,,,,,,,,,,,,,,,,,,,,,,,,,,,,,,,,,,,,,,,,,,,,,,,,,,,,,,,,,,,,,,,3,001,2023_Nov_16_1138,experiment_old_ver,2020.1.3,143.72393192331958,
,,,,0,0.95,20,stimoli/neutral_face_001.jpg,,,,,,,,,0,0,0,0,0,20,20,20,,,,,,,,,,,,,,,,,,,,,,,,,,,,,,,,,,,,,,,,,,,,,177.04616412943324,None,0.005062203479610616,None,177.95590237062152,178.7597660810461,178.9059244051635,None,0.0017277069455303717,0.011573651178878208,,,,,,,,,,,,,,,,,,,,,,,3,001,2023_Nov_16_1138,experiment_old_ver,2020.1.3,143.72393192331958,
,,,,1,0.245,12,stimoli/disgust_face_002.jpg,,,,,,,,,0,0,0,0,0,21,21,21,,,,,0,0,0,0,,,,,,,,,,,,,,,,,,,,,,,,,,,,,,,,,,,,,179.00364900995282,None,0.005336432494914334,None,179.80885531997865,None,180.04907227201448,None,0.00588299818628002,0.01454959728380345,,,,,,,,,180.61372325385128,None,n,2.103949795884546,180.61372325385128,None,,,,,,,,,3,001,2023_Nov_16_1138,experiment_old_ver,2020.1.3,143.72393192331958,
,,,,1,0.245,12,stimoli/disgust_face_002.jpg,,,,,,,,,0,0,0,0,0,21,21,21,,,,,,,,,,,,,,,,,,,,,,,,,,,,,,,,,,,,,,,,,,,,,,,,,,,,,,,,,,,,,,,,,,,,,,,,,,,,,3,001,2023_Nov_16_1138,experiment_old_ver,2020.1.3,143.72393192331958,
,,,,0,0.95,10,stimoli/disgust_face_003.jpg,,,,,,,,,0,0,0,0,0,22,22,22,,,,,,,,,,,,,,,,,,,,,,,,,,,,,,,,,,,,,,,,,,,,,182.72442132866672,None,0.0053329044030761,None,183.5295477755053,184.33450070433537,184.4736413315407,None,0.005158456260687672,0.013835639636454289,,,,,,,,,,,,,,,,,,,,,,,3,001,2023_Nov_16_1138,experiment_old_ver,2020.1.3,143.72393192331958,
,,,,1,0.245,12,stimoli/disgust_face_005.jpg,,,,,,,,,0,0,0,0,0,23,23,23,0,0,0,0,,,,,,,,,,,,,,,,,,,,,,,,,,,,,,,,,,,,,,,,,184.57131718450546,None,0.005310132168233395,None,185.47626138932446,None,185.71088952195015,None,0.003990433095168555,0.08796769678338023,187.17915240461963,None,186.28075791126685,187.08180652453393,187.07484656004544,None,0.8049731672526832,0.8188879644576446,,,,,,,,,,,,,,,3,001,2023_Nov_16_1138,experiment_old_ver,2020.1.3,143.72393192331958,
,,,,1,0.245,12,stimoli/disgust_face_005.jpg,,,,,,,,,0,0,0,0,0,23,23,23,,,,,,,,,,,,,,,,,,,,,,,,,,,,,,,,,,,,,,,,,,,,,,,,,,,,,,,,,,,,,,,,,,,,,,,,,,,,,3,001,2023_Nov_16_1138,experiment_old_ver,2020.1.3,143.72393192331958,
,,,,1,0.245,12,stimoli/disgust_face_017.jpg,,,,,,,,,0,0,0,0,0,24,24,24,,,,,,,,,,,,,,,,,,,,,,,,,,,,,,,,,,,,,,,,,,,,,187.87594745323076,None,0.005045845959102735,None,188.7000691506155,None,188.94165628552156,None,0.004875663602433633,0.013574015534686623,,,,,,,,,,,,,,,,,,,,,,,3,001,2023_Nov_16_1138,experiment_old_ver,2020.1.3,143.72393192331958,
,,,,0,0.95,10,stimoli/disgust_face_018.jpg,,,,,,,,,0,0,0,0,0,25,25,25,,,,,,,,,,,,,,,,,,,,,,,,,,,,,,,,,,,,,,,,,,,,,189.50172427507368,None,0.005292170969369181,None,190.40628006897077,191.210586394649,191.27311096300247,None,0.004763406110214419,0.08955277256700356,,,,,,,,,,,,,,,,,,,,,,,3,001,2023_Nov_16_1138,experiment_old_ver,2020.1.3,143.72393192331958,
,,,,0,0.95,10,stimoli/disgust_face_005.jpg,,,,,,,,,0,0,0,0,0,26,26,26,,,,,,,,,,,,,,,,,,,,,,,,,,,,,,,,,,,,,,,,,,,,,191.36383936017137,None,0.005333225138201669,None,192.26636778376815,193.06976386155566,193.11136972742617,None,0.0063961752921386505,0.11314246566325892,,,,,,,,,,,,,,,,,,,,,,,3,001,2023_Nov_16_1138,experiment_old_ver,2020.1.3,143.72393192331958,
,,,,0,0.95,10,stimoli/disgust_face_016.jpg,,,,,,,,,0,0,0,0,0,27,27,27,0,0,0,0,,,,,,,,,,,,,,,,,,,,,,,,,,,,,,,,,,,,,,,,,193.21608765321525,None,0.005303075982737937,None,194.0195799517105,194.82374098411947,194.96289444075256,None,0.005146268304088153,0.013825055359120597,196.09879977497195,None,195.06056035091024,195.8620551075237,195.85510091627748,None,0.8053269387191904,0.8192657911013157,,,,,,,,,,,,,,,3,001,2023_Nov_16_1138,experiment_old_ver,2020.1.3,143.72393192331958,
,,,,0,0.95,10,stimoli/disgust_face_016.jpg,,,,,,,,,0,0,0,0,0,27,27,27,,,,,,,,,,,,,,,,,,,,,,,,,,,,,,,,,,,,,,,,,,,,,,,,,,,,,,,,,,,,,,,,,,,,,,,,,,,,,3,001,2023_Nov_16_1138,experiment_old_ver,2020.1.3,143.72393192331958,
,,,,1,0.245,12,stimoli/disgust_face_007.jpg,,,,,,,,,0,0,0,0,0,28,28,28,,,,,,,,,,,,,,,,,,,,,,,,,,,,,,,,,,,,,,,,,,,,,196.656512602347,None,0.004866875443440222,None,197.47089195312674,None,197.71255927195608,None,0.0016130760095620644,0.011375308227798087,,,,,,,,,,,,,,,,,,,,,,,3,001,2023_Nov_16_1138,experiment_old_ver,2020.1.3,143.72393192331958,
,,,,0,0.95,10,stimoli/disgust_face_014.jpg,,,,,,,,,0,0,0,0,0,29,29,29,,,,,,,,,,,,,,,,,,,,,,,,,,,,,,,,,,,,,,,,,,,,,198.27459914453357,None,0.0052838318415524554,None,199.07904691465137,199.88365729776342,200.02280594336054,None,0.005353784296858066,0.01401589309625706,,,,,,,,,,,,,,,,,,,,,,,3,001,2023_Nov_16_1138,experiment_old_ver,2020.1.3,143.72393192331958,
,,,,1,0.105,11,stimoli/disgust_face_005.jpg,,,,,,,,,0,0,0,0,0,30,30,30,,,,,0,0,0,0,,,,,,,,,,,,,,,,,,,,,,,,,,,,,,,,,,,,,200.11356833851187,None,0.0053357910237537,None,200.91811072565815,None,201.03881257874065,None,0.0064256829746227595,0.01508907471634302,,,,,,,,,201.72267780945276,None,n,1.254032289103634,201.72267780945276,None,,,,,,,,,3,001,2023_Nov_16_1138,experiment_old_ver,2020.1.3,143.72393192331958,
,,,,1,0.105,11,stimoli/disgust_face_005.jpg,,,,,,,,,0,0,0,0,0,30,30,30,,,,,,,,,,,,,,,,,,,,,,,,,,,,,,,,,,,,,,,,,,,,,,,,,,,,,,,,,,,,,,,,,,,,,,,,,,,,,3,001,2023_Nov_16_1138,experiment_old_ver,2020.1.3,143.72393192331958,
,,,,0,0.95,10,stimoli/disgust_face_011.jpg,,,,,,,,,0,0,0,0,0,31,31,31,0,0,0,0,,,,,,,,,,,,,,,,,,,,,,,,,,,,,,,,,,,,,,,,,202.98347024470877,None,0.005349261921764992,None,203.78889433426866,204.59395021925502,204.73310175147373,None,0.005293165250805032,0.013922238274062693,205.72925516833521,None,204.83086195792475,205.63193751298968,205.62499422675774,None,0.8051514962953661,0.8190701423282007,,,,,,,,,,,,,,,3,001,2023_Nov_16_1138,experiment_old_ver,2020.1.3,143.72393192331958,
,,,,0,0.95,10,stimoli/disgust_face_011.jpg,,,,,,,,,0,0,0,0,0,31,31,31,,,,,,,,,,,,,,,,,,,,,,,,,,,,,,,,,,,,,,,,,,,,,,,,,,,,,,,,,,,,,,,,,,,,,,,,,,,,,3,001,2023_Nov_16_1138,experiment_old_ver,2020.1.3,143.72393192331958,
,,,,0,0.95,10,stimoli/disgust_face_010.jpg,,,,,,,,,0,0,0,0,0,32,32,32,,,,,,,,,,,,,,,,,,,,,,,,,,,,,,,,,,,,,,,,,,,,,206.4260813283081,None,0.004990358685063256,None,207.22850076591658,208.03202449650962,208.17115325649348,None,0.005841302546286897,0.0144976381025117,,,,,,,,,,,,,,,,,,,,,,,3,001,2023_Nov_16_1138,experiment_old_ver,2020.1.3,143.72393192331958,
,,,,0,0.95,10,stimoli/disgust_face_020.jpg,,,,,,,,,0,0,0,0,0,33,33,33,,,,,,,,,,,,,,,,,,,,,,,,,,,,,,,,,,,,,,,,,,,,,208.26887337098378,None,0.0052482301798590925,None,209.1758305129979,209.97504195222882,210.1211309974372,None,0.005491379907653027,0.11413482188891066,,,,,,,,,,,,,,,,,,,,,,,3,001,2023_Nov_16_1138,experiment_old_ver,2020.1.3,143.72393192331958,
,,,,1,0.105,11,stimoli/disgust_face_010.jpg,,,,,,,,,0,0,0,0,0,34,34,34,,,,,,,,,,,,,,,,,,,,,,,,,,,,,,,,,,,,,,,,,,,,,210.21188152536797,None,0.005304038189933635,None,211.01777870007118,None,211.13846227121968,None,0.0064330598961532814,0.015065661011249176,,,,,,,,,,,,,,,,,,,,,,,3,001,2023_Nov_16_1138,experiment_old_ver,2020.1.3,143.72393192331958,
,,,,0,0.95,10,stimoli/disgust_face_016.jpg,,,,,,,,,0,0,0,0,0,35,35,35,0,0,0,0,,,,,,,,,,,,,,,,,,,,,,,,,,,,,,,,,,,,,,,,,211.82289199674688,None,0.005294736855830706,None,212.72605708068932,213.52974053765593,213.57135025235522,None,0.006188017829117598,0.1127768269752778,214.71377453948782,None,213.67604925473825,214.4771260927464,214.47015233662387,None,0.805095688286201,0.8189999012129192,,,,,,,,,,,,,,,3,001,2023_Nov_16_1138,experiment_old_ver,2020.1.3,143.72393192331958,
,,,,0,0.95,10,stimoli/disgust_face_016.jpg,,,,,,,,,0,0,0,0,0,35,35,35,,,,,,,,,,,,,,,,,,,,,,,,,,,,,,,,,,,,,,,,,,,,,,,,,,,,,,,,,,,,,,,,,,,,,,,,,,,,,3,001,2023_Nov_16_1138,experiment_old_ver,2020.1.3,143.72393192331958,
,,,,1,0.245,12,stimoli/disgust_face_006.jpg,,,,,,,,,0,0,0,0,0,36,36,36,,,,,,,,,,,,,,,,,,,,,,,,,,,,,,,,,,,,,,,,,,,,,215.2712086475476,None,0.004980095142855134,None,216.17582313607636,None,216.4104384392743,None,0.0016990331732813502,0.09696779685327783,,,,,,,,,,,,,,,,,,,,,,,3,001,2023_Nov_16_1138,experiment_old_ver,2020.1.3,143.72393192331958,
,,,,1,0.105,11,stimoli/disgust_face_017.jpg,,,,,,,,,0,0,0,0,0,37,37,37,,,,,,,,,,,,,,,,,,,,,,,,,,,,,,,,,,,,,,,,,,,,,216.98015993164518,None,0.0053232823320286116,None,217.88476223221824,None,217.99848583887825,None,0.006480528777501604,0.11511499015978188,,,,,,,,,,,,,,,,,,,,,,,3,001,2023_Nov_16_1138,experiment_old_ver,2020.1.3,143.72393192331958,
,,,,1,0.105,21,stimoli/happy_face_002.jpg,,,,,,,,,0,0,0,0,0,38,38,38,,,,,,,,,,,,,,,,,,,,,,,,,,,,,,,,,,,,,,,,,,,,,218.68398393499047,None,0.005287680671244743,None,219.54877812531322,None,219.66941839714246,None,0.000477575444165268,0.010002783986237773,,,,,,,,,,,,,,,,,,,,,,,3,001,2023_Nov_16_1138,experiment_old_ver,2020.1.3,143.72393192331958,
,,,,1,0.245,12,stimoli/disgust_face_014.jpg,,,,,,,,,0,0,0,0,0,39,39,39,0,0,0,0,,,,,,,,,,,,,,,,,,,,,,,,,,,,,,,,,,,,,,,,,220.3502424120352,None,0.005291208763082977,None,221.15487332223165,None,221.48215910927894,None,0.006173905457217188,0.11479746182612871,222.99221000361769,None,221.9543958750828,222.7555394261144,222.7485945362032,None,0.8051733063221036,0.8190528226014067,,,,,,,,,,,,,,,3,001,2023_Nov_16_1138,experiment_old_ver,2020.1.3,143.72393192331958,
,,,,1,0.245,12,stimoli/disgust_face_014.jpg,,,,,,,,,0,0,0,0,0,39,39,39,,,,,,,,,,,,,,,,,,,,,,,,,,,,,,,,,,,,,,,,,,,,,,,,,,,,,,,,,,,,,,,,,,,,,,,,,,,,,3,001,2023_Nov_16_1138,experiment_old_ver,2020.1.3,143.72393192331958,
,,,,,,,,,,,,,,,,0,0,0,0,,,,,,,,,,,,,,,,,,,,,,,,,,,,,,,,,,,,,,,,,,,,,,,,,,,,,,,,,,,,,,,,,,,,,,,,,,,,,,,,,3,001,2023_Nov_16_1138,experiment_old_ver,2020.1.3,143.72393192331958,
,,,,1,0.245,32,stimoli/disgust_image_005.jpg,,,,,,,,,1,0,1,0,0,0,0,0,,,,,,,,,,,,,,,,,,,,,,,,,,,,,,,,,,,,,,,,,,,,,223.68200659945796,None,0.004742429996440478,None,224.49102613611012,None,224.8325336644187,None,0.0060536295732163126,0.1147070143615565,,,,,,,,,,,,,,,,,,,,,,,3,001,2023_Nov_16_1138,experiment_old_ver,2020.1.3,143.72393192331958,
,,,,1,0.105,31,stimoli/disgust_image_016.jpg,,,,,,,,,1,0,1,0,0,1,1,1,,,,,0,0,0,0,,,,,,,,,,,,,,,,,,,,,,,,,,,,,,,,,,,,,225.29637517351784,None,0.004885478114374564,None,226.1102612328059,None,226.23096404809468,None,0.0007156575466069626,0.00938097370271862,,,,,,,,,226.91370028917572,None,n,2.7937060110998573,226.91370028917572,None,,,,,,,,,3,001,2023_Nov_16_1138,experiment_old_ver,2020.1.3,143.72393192331958,
,,,,1,0.105,31,stimoli/disgust_image_016.jpg,,,,,,,,,1,0,1,0,0,1,1,1,,,,,,,,,,,,,,,,,,,,,,,,,,,,,,,,,,,,,,,,,,,,,,,,,,,,,,,,,,,,,,,,,,,,,,,,,,,,,3,001,2023_Nov_16_1138,experiment_old_ver,2020.1.3,143.72393192331958,
,,,,0,0.95,30,stimoli/disgust_image_005.jpg,,,,,,,,,1,0,1,0,0,2,2,2,,,,,,,,,,,,,,,,,,,,,,,,,,,,,,,,,,,,,,,,,,,,,229.71419082234115,None,0.005357921786526276,None,230.5177421362023,231.3218200980682,231.46099664767036,None,0.006120984069639235,0.014771225647564279,,,,,,,,,,,,,,,,,,,,,,,3,001,2023_Nov_16_1138,experiment_old_ver,2020.1.3,143.72393192331958,
,,,,1,0.245,32,stimoli/disgust_image_014.jpg,,,,,,,,,1,0,1,0,0,3,3,3,0,0,0,0,,,,,,,,,,,,,,,,,,,,,,,,,,,,,,,,,,,,,,,,,231.55871644142462,None,0.00525239974467695,None,232.464555178085,None,232.79863126044012,None,0.006259541886720399,0.11486417484957201,234.1626653071756,None,233.2641883847491,234.06534380300127,234.05836908467154,None,0.8050363521833788,0.818972317943917,,,,,,,,,,,,,,,3,001,2023_Nov_16_1138,experiment_old_ver,2020.1.3,143.72393192331958,
,,,,1,0.245,32,stimoli/disgust_image_014.jpg,,,,,,,,,1,0,1,0,0,3,3,3,,,,,,,,,,,,,,,,,,,,,,,,,,,,,,,,,,,,,,,,,,,,,,,,,,,,,,,,,,,,,,,,,,,,,,,,,,,,,3,001,2023_Nov_16_1138,experiment_old_ver,2020.1.3,143.72393192331958,
,,,,1,0.105,31,stimoli/disgust_image_011.jpg,,,,,,,,,1,0,1,0,0,4,4,4,,,,,,,,,,,,,,,,,,,,,,,,,,,,,,,,,,,,,,,,,,,,,234.85949916480422,None,0.004693036699791264,None,235.82232301163094,None,236.01814116347515,None,0.002637088849041902,0.07933974633670005,,,,,,,,,,,,,,,,,,,,,,,3,001,2023_Nov_16_1138,experiment_old_ver,2020.1.3,143.72393192331958,
,,,,1,0.245,32,stimoli/disgust_image_006.jpg,,,,,,,,,1,0,1,0,0,5,5,5,,,,,,,,,,,,,,,,,,,,,,,,,,,,,,,,,,,,,,,,,,,,,236.62217303562193,None,0.005302755247612367,None,237.52550875095312,None,237.76012405415105,None,0.006481234396233049,0.09977137959958782,,,,,,,,,,,,,,,,,,,,,,,3,001,2023_Nov_16_1138,experiment_old_ver,2020.1.3,143.72393192331958,
,,,,1,0.105,31,stimoli/disgust_image_008.jpg,,,,,,,,,1,0,1,0,0,6,6,6,,,,,,,,,,,,,,,,,,,,,,,,,,,,,,,,,,,,,,,,,,,,,238.3292704674277,None,0.004845386152737774,None,239.2367209009335,None,239.35049229721182,None,0.004012788373984222,0.11270049188078701,,,,,,,,,,,,,,,,,,,,,,,3,001,2023_Nov_16_1138,experiment_old_ver,2020.1.3,143.72393192331958,
,,,,1,0.105,31,stimoli/disgust_image_001.jpg,,,,,,,,,1,0,1,0,0,7,7,7,0,0,0,0,,,,,,,,,,,,,,,,,,,,,,,,,,,,,,,,,,,,,,,,,240.0415487428445,None,0.0053348288165580016,None,240.94560547200763,None,240.95238553584687,None,0.0054022153872210765,0.11119367560695537,242.64819339207526,None,241.74970267801473,242.55084173874639,242.54387535954447,None,0.8050296167348279,0.8189537152748017,,,,,,,,,,,,,,,3,001,2023_Nov_16_1138,experiment_old_ver,2020.1.3,143.72393192331958,
,,,,1,0.105,31,stimoli/disgust_image_001.jpg,,,,,,,,,1,0,1,0,0,7,7,7,,,,,,,,,,,,,,,,,,,,,,,,,,,,,,,,,,,,,,,,,,,,,,,,,,,,,,,,,,,,,,,,,,,,,,,,,,,,,3,001,2023_Nov_16_1138,experiment_old_ver,2020.1.3,143.72393192331958,
,,,,1,0.245,32,stimoli/disgust_image_007.jpg,,,,,,,,,1,0,1,0,0,8,8,8,,,,,,,,,,,,,,,,,,,,,,,,,,,,,,,,,,,,,,,,,,,,,243.34566807961437,None,0.005054185087828955,None,244.14967964919197,None,244.38993990054615,None,0.005457381924315996,0.015222180027194554,,,,,,,,,,,,,,,,,,,,,,,3,001,2023_Nov_16_1138,experiment_old_ver,2020.1.3,143.72393192331958,
,,,,1,0.245,32,stimoli/disgust_image_011.jpg,,,,,,,,,1,0,1,0,0,9,9,9,,,,,,,,,,,,,,,,,,,,,,,,,,,,,,,,,,,,,,,,,,,,,244.954442702493,None,0.0052299482449598145,None,245.85595343174373,None,246.09055847139945,None,0.004618754313014506,0.08926507265277905,,,,,,,,,,,,,,,,,,,,,,,3,001,2023_Nov_16_1138,experiment_old_ver,2020.1.3,143.72393192331958,
,,,,1,0.105,31,stimoli/disgust_image_015.jpg,,,,,,,,,1,0,1,0,0,10,10,10,,,,,,,,,,,,,,,,,,,,,,,,,,,,,,,,,,,,,,,,,,,,,246.6590323019327,None,0.004989075741832494,None,247.5795026800679,None,247.69333277097695,None,0.006136443528703239,0.11578218454360467,,,,,,,,,,,,,,,,,,,,,,,3,001,2023_Nov_16_1138,experiment_old_ver,2020.1.3,143.72393192331958,
,,,,1,0.105,31,stimoli/disgust_image_010.jpg,,,,,,,,,1,0,1,0,0,11,11,11,0,0,0,0,,,,,,,,,,,,,,,,,,,,,,,,,,,,,,,,,,,,,,,,,248.38404282206375,None,0.005246947238447319,None,249.20927330273116,None,249.33008292300593,None,0.006408780203855713,0.016240612066212634,251.0499947078609,None,250.0116686851634,250.8131781956181,250.80624036189238,None,0.8055880175706989,0.8194771559201399,,,,,,,,,,,,,,,3,001,2023_Nov_16_1138,experiment_old_ver,2020.1.3,143.72393192331958,
,,,,1,0.105,31,stimoli/disgust_image_010.jpg,,,,,,,,,1,0,1,0,0,11,11,11,,,,,,,,,,,,,,,,,,,,,,,,,,,,,,,,,,,,,,,,,,,,,,,,,,,,,,,,,,,,,,,,,,,,,,,,,,,,,3,001,2023_Nov_16_1138,experiment_old_ver,2020.1.3,143.72393192331958,
,,,,1,0.105,31,stimoli/disgust_image_001.jpg,,,,,,,,,1,0,1,0,0,12,12,12,,,,,0,0,0,0,,,,,,,,,,,,,,,,,,,,,,,,,,,,,,,,,,,,,251.60778643621597,None,0.004996131926418457,None,252.41602658513966,None,252.52985282722085,None,0.005940730609836464,0.1156730702614368,,,,,,,,,253.21621402307755,None,n,1.5119198212087213,253.21621402307755,None,,,,,,,,,3,001,2023_Nov_16_1138,experiment_old_ver,2020.1.3,143.72393192331958,
,,,,1,0.105,31,stimoli/disgust_image_001.jpg,,,,,,,,,1,0,1,0,0,12,12,12,,,,,,,,,,,,,,,,,,,,,,,,,,,,,,,,,,,,,,,,,,,,,,,,,,,,,,,,,,,,,,,,,,,,,,,,,,,,,3,001,2023_Nov_16_1138,experiment_old_ver,2020.1.3,143.72393192331958,
,,,,1,0.105,31,stimoli/disgust_image_011.jpg,,,,,,,,,1,0,1,0,0,13,13,13,,,,,,,,,,,,,,,,,,,,,,,,,,,,,,,,,,,,,,,,,,,,,254.7348975185323,None,0.005327451895936974,None,255.55849128496993,None,255.67923932399236,None,0.005094405342788377,0.013567921555477369,,,,,,,,,,,,,,,,,,,,,,,3,001,2023_Nov_16_1138,experiment_old_ver,2020.1.3,143.72393192331958,
,,,,1,0.245,32,stimoli/disgust_image_005.jpg,,,,,,,,,1,0,1,0,0,14,14,14,,,,,,,,,,,,,,,,,,,,,,,,,,,,,,,,,,,,,,,,,,,,,256.35997032553405,None,0.005290888026138418,None,257.2653795971046,None,257.50001446517973,None,0.006504968836452463,0.09979286889029026,,,,,,,,,,,,,,,,,,,,,,,3,001,2023_Nov_16_1138,experiment_old_ver,2020.1.3,143.72393192331958,
,,,,1,0.245,32,stimoli/disgust_image_019.jpg,,,,,,,,,1,0,1,0,0,15,15,15,0,0,0,0,,,,,,,,,,,,,,,,,,,,,,,,,,,,,,,,,,,,,,,,,258.0701208403789,None,0.005322320123923419,None,258.9753405571564,None,259.2099382198915,None,0.006295464285358321,0.11297055133218237,260.81777116278255,None,259.7799663355818,260.581108282935,260.57412682915583,None,0.8051126872769601,0.8190300503674735,,,,,,,,,,,,,,,3,001,2023_Nov_16_1138,experiment_old_ver,2020.1.3,143.72393192331958,
,,,,1,0.245,32,stimoli/disgust_image_019.jpg,,,,,,,,,1,0,1,0,0,15,15,15,,,,,,,,,,,,,,,,,,,,,,,,,,,,,,,,,,,,,,,,,,,,,,,,,,,,,,,,,,,,,,,,,,,,,,,,,,,,,3,001,2023_Nov_16_1138,experiment_old_ver,2020.1.3,143.72393192331958,
,,,,1,0.105,31,stimoli/disgust_image_016.jpg,,,,,,,,,1,0,1,0,0,16,16,16,,,,,,,,,,,,,,,,,,,,,,,,,,,,,,,,,,,,,,,,,,,,,261.37527775710805,None,0.0050461666942283046,None,262.17754324158614,None,262.2982367555408,None,0.005804738677397836,0.014446320392380585,,,,,,,,,,,,,,,,,,,,,,,3,001,2023_Nov_16_1138,experiment_old_ver,2020.1.3,143.72393192331958,
,,,,1,0.105,31,stimoli/disgust_image_001.jpg,,,,,,,,,1,0,1,0,0,17,17,17,,,,,,,,,,,,,,,,,,,,,,,,,,,,,,,,,,,,,,,,,,,,,262.9809909578198,None,0.005262984021101147,None,263.88525776886036,None,263.8920378326996,None,0.0059955764136248035,0.11233581540000159,,,,,,,,,,,,,,,,,,,,,,,3,001,2023_Nov_16_1138,experiment_old_ver,2020.1.3,143.72393192331958,
,,,,0,0.95,30,stimoli/disgust_image_016.jpg,,,,,,,,,1,0,1,0,0,18,18,18,,,,,,,,,,,,,,,,,,,,,,,,,,,,,,,,,,,,,,,,,,,,,264.68946594941644,None,0.0052475887086984585,None,265.5944422278044,266.40031438512415,266.53945148423674,None,0.005999425241498102,0.11465826253697742,,,,,,,,,,,,,,,,,,,,,,,3,001,2023_Nov_16_1138,experiment_old_ver,2020.1.3,143.72393192331958,
,,,,1,0.105,31,stimoli/disgust_image_017.jpg,,,,,,,,,1,0,1,0,0,19,19,19,0,0,0,0,,,,,,,,,,,,,,,,,,,,,,,,,,,,,,,,,,,,,,,,,266.64412995953626,None,0.005295057590956276,None,267.44774317538577,None,267.56847357394537,None,0.005602354457550973,0.014267349876718072,269.2897722199271,None,268.2519468656428,269.05312249024337,269.0461339802787,None,0.8050748404648402,0.8189986182696884,,,,,,,,,,,,,,,3,001,2023_Nov_16_1138,experiment_old_ver,2020.1.3,143.72393192331958,
,,,,1,0.105,31,stimoli/disgust_image_017.jpg,,,,,,,,,1,0,1,0,0,19,19,19,,,,,,,,,,,,,,,,,,,,,,,,,,,,,,,,,,,,,,,,,,,,,,,,,,,,,,,,,,,,,,,,,,,,,,,,,,,,,3,001,2023_Nov_16_1138,experiment_old_ver,2020.1.3,143.72393192331958,
,,,,1,0.105,21,stimoli/happy_face_001.jpg,,,,,,,,,1,0,1,0,0,20,20,20,,,,,0,0,0,0,,,,,,,,,,,,,,,,,,,,,,,,,,,,,,,,,,,,,269.8472483443629,None,0.0050878623351309216,None,270.65486498310383,None,270.7686062302267,None,0.005411516721324006,0.11408157976438815,,,,,,,,,271.4550723066541,None,p,1.6860472276894143,271.4550723066541,None,,,,,,,,,3,001,2023_Nov_16_1138,experiment_old_ver,2020.1.3,143.72393192331958,
,,,,1,0.105,21,stimoli/happy_face_001.jpg,,,,,,,,,1,0,1,0,0,20,20,20,,,,,,,,,,,,,,,,,,,,,,,,,,,,,,,,,,,,,,,,,,,,,,,,,,,,,,,,,,,,,,,,,,,,,,,,,,,,,3,001,2023_Nov_16_1138,experiment_old_ver,2020.1.3,143.72393192331958,
,,,,0,0.95,10,stimoli/disgust_face_001.jpg,,,,,,,,,1,0,1,0,0,21,21,21,,,,,,,,,,,,,,,,,,,,,,,,,,,,,,,,,,,,,,,,,,,,,273.1478812841742,None,0.005285435519908788,None,274.0543723972296,274.85371565882997,274.99981977861563,None,0.00576240156624408,0.11440295692682412,,,,,,,,,,,,,,,,,,,,,,,3,001,2023_Nov_16_1138,experiment_old_ver,2020.1.3,143.72393192331958,
,,,,1,0.245,12,stimoli/disgust_face_002.jpg,,,,,,,,,1,0,1,0,0,22,22,22,,,,,,,,,,,,,,,,,,,,,,,,,,,,,,,,,,,,,,,,,,,,,275.0975001218794,None,0.005263625493171276,None,276.0038453001962,None,276.3381391620845,None,0.006609464525354269,0.11536227737724403,,,,,,,,,,,,,,,,,,,,,,,3,001,2023_Nov_16_1138,experiment_old_ver,2020.1.3,143.72393192331958,
,,,,1,0.245,12,stimoli/disgust_face_006.jpg,,,,,,,,,1,0,1,0,0,23,23,23,0,0,0,0,,,,,,,,,,,,,,,,,,,,,,,,,,,,,,,,,,,,,,,,,276.80386306895343,None,0.005331300723810273,None,277.6070144254081,None,277.8469901842048,None,0.00630187899878365,0.01496013896939985,279.4486486443141,None,278.41084157196383,279.21201078185095,279.205016498644,None,0.8050366729185043,0.8189463383523616,,,,,,,,,,,,,,,3,001,2023_Nov_16_1138,experiment_old_ver,2020.1.3,143.72393192331958,
,,,,1,0.245,12,stimoli/disgust_face_006.jpg,,,,,,,,,1,0,1,0,0,23,23,23,,,,,,,,,,,,,,,,,,,,,,,,,,,,,,,,,,,,,,,,,,,,,,,,,,,,,,,,,,,,,,,,,,,,,,,,,,,,,3,001,2023_Nov_16_1138,experiment_old_ver,2020.1.3,143.72393192331958,
,,,,1,0.245,12,stimoli/disgust_face_004.jpg,,,,,,,,,1,0,1,0,0,24,24,24,,,,,,,,,,,,,,,,,,,,,,,,,,,,,,,,,,,,,,,,,,,,,280.00610744902224,None,0.004965020564668521,None,280.91751223285974,None,281.15422803409575,None,0.005567233898545965,0.02158220840647118,,,,,,,,,,,,,,,,,,,,,,,3,001,2023_Nov_16_1138,experiment_old_ver,2020.1.3,143.72393192331958,
,,,,0,0.95,10,stimoli/disgust_face_014.jpg,,,,,,,,,1,0,1,0,0,25,25,25,,,,,,,,,,,,,,,,,,,,,,,,,,,,,,,,,,,,,,,,,,,,,281.71918884660863,None,0.0053056418682899675,None,282.5236956320932,283.32316879164773,283.46926136494886,None,0.006345819787384244,0.11495333937182295,,,,,,,,,,,,,,,,,,,,,,,3,001,2023_Nov_16_1138,experiment_old_ver,2020.1.3,143.72393192331958,
,,,,1,0.105,11,stimoli/disgust_face_019.jpg,,,,,,,,,1,0,1,0,0,26,26,26,,,,,,,,,,,,,,,,,,,,,,,,,,,,,,,,,,,,,,,,,,,,,283.5739481793762,None,0.005316226146533154,None,284.4019292893272,None,284.52262568990255,None,0.0015528418471149052,0.01027492821958731,,,,,,,,,,,,,,,,,,,,,,,3,001,2023_Nov_16_1138,experiment_old_ver,2020.1.3,143.72393192331958,
,,,,1,0.105,11,stimoli/disgust_face_019.jpg,,,,,,,,,1,0,1,0,0,27,27,27,0,0,0,0,,,,,,,,,,,,,,,,,,,,,,,,,,,,,,,,,,,,,,,,,285.2055129974933,None,0.005188573341911251,None,286.10478659530054,None,286.1115666591398,None,0.006150812487248913,0.11261934575031773,287.9445236625964,None,286.9067582858861,287.7078700840839,287.70088510221194,None,0.8050697086946457,0.8189832229572858,,,,,,,,,,,,,,,3,001,2023_Nov_16_1138,experiment_old_ver,2020.1.3,143.72393192331958,
,,,,1,0.105,11,stimoli/disgust_face_019.jpg,,,,,,,,,1,0,1,0,0,27,27,27,,,,,,,,,,,,,,,,,,,,,,,,,,,,,,,,,,,,,,,,,,,,,,,,,,,,,,,,,,,,,,,,,,,,,,,,,,,,,3,001,2023_Nov_16_1138,experiment_old_ver,2020.1.3,143.72393192331958,
,,,,1,0.245,12,stimoli/disgust_face_010.jpg,,,,,,,,,1,0,1,0,0,28,28,28,,,,,,,,,,,,,,,,,,,,,,,,,,,,,,,,,,,,,,,,,,,,,288.502017106759,None,0.005047770374403626,None,289.30659990660206,None,289.5467555981207,None,0.006263390715503192,0.014872257389470178,,,,,,,,,,,,,,,,,,,,,,,3,001,2023_Nov_16_1138,experiment_old_ver,2020.1.3,143.72393192331958,
,,,,1,0.105,11,stimoli/disgust_face_009.jpg,,,,,,,,,1,0,1,0,0,29,29,29,,,,,,,,,,,,,,,,,,,,,,,,,,,,,,,,,,,,,,,,,,,,,290.1111714806957,None,0.005297302741382737,None,291.0148763628058,None,291.02165642664505,None,0.005734176825171744,0.11183931655068591,,,,,,,,,,,,,,,,,,,,,,,3,001,2023_Nov_16_1138,experiment_old_ver,2020.1.3,143.72393192331958,
,,,,0,0.95,10,stimoli/disgust_face_010.jpg,,,,,,,,,1,0,1,0,0,30,30,30,,,,,0,0,0,0,,,,,,,,,,,,,,,,,,,,,,,,,,,,,,,,,,,,,291.8188144839105,None,0.005142066666849132,None,292.7233160734768,293.5226192431155,293.6687082883239,None,0.006555260193636059,0.11520126806135522,,,,,,,,,293.7594867202597,None,n,1.4840215893609638,293.7594867202597,None,,,,,,,,,3,001,2023_Nov_16_1138,experiment_old_ver,2020.1.3,143.72393192331958,
,,,,0,0.95,10,stimoli/disgust_face_010.jpg,,,,,,,,,1,0,1,0,0,30,30,30,,,,,,,,,,,,,,,,,,,,,,,,,,,,,,,,,,,,,,,,,,,,,,,,,,,,,,,,,,,,,,,,,,,,,,,,,,,,,3,001,2023_Nov_16_1138,experiment_old_ver,2020.1.3,143.72393192331958,
,,,,0,0.95,10,stimoli/disgust_face_006.jpg,,,,,,,,,1,0,1,0,0,31,31,31,0,0,0,0,,,,,,,,,,,,,,,,,,,,,,,,,,,,,,,,,,,,,,,,,295.2502527397246,None,0.005313980996106693,None,296.05651747752927,296.8618979470348,297.00106744045235,None,0.006282955593633233,0.01487354033270094,297.99731771949274,None,297.0987618960871,297.89993206818053,297.8929518973446,None,0.8049792612300735,0.8189033597709567,,,,,,,,,,,,,,,3,001,2023_Nov_16_1138,experiment_old_ver,2020.1.3,143.72393192331958,
,,,,0,0.95,10,stimoli/disgust_face_006.jpg,,,,,,,,,1,0,1,0,0,31,31,31,,,,,,,,,,,,,,,,,,,,,,,,,,,,,,,,,,,,,,,,,,,,,,,,,,,,,,,,,,,,,,,,,,,,,,,,,,,,,3,001,2023_Nov_16_1138,experiment_old_ver,2020.1.3,143.72393192331958,
,,,,1,0.105,11,stimoli/disgust_face_008.jpg,,,,,,,,,1,0,1,0,0,32,32,32,,,,,,,,,,,,,,,,,,,,,,,,,,,,,,,,,,,,,,,,,,,,,298.69430937908146,None,0.004981057350050833,None,299.55710538605035,None,299.6778473310945,None,0.0019959382034357986,0.01226653649155196,,,,,,,,,,,,,,,,,,,,,,,3,001,2023_Nov_16_1138,experiment_old_ver,2020.1.3,143.72393192331958,
,,,,1,0.105,11,stimoli/disgust_face_017.jpg,,,,,,,,,1,0,1,0,0,33,33,33,,,,,,,,,,,,,,,,,,,,,,,,,,,,,,,,,,,,,,,,,,,,,300.35794616259045,None,0.00524694723662833,None,301.16505219011196,None,301.2788697723293,None,0.006407721775758546,0.11616956911075249,,,,,,,,,,,,,,,,,,,,,,,3,001,2023_Nov_16_1138,experiment_old_ver,2020.1.3,143.72393192331958,
,,,,1,0.105,11,stimoli/disgust_face_004.jpg,,,,,,,,,1,0,1,0,0,34,34,34,,,,,,,,,,,,,,,,,,,,,,,,,,,,,,,,,,,,,,,,,,,,,301.96523674142827,None,0.005233155603491468,None,302.76824023872996,None,302.88904184061204,None,0.006132851289294194,0.01583542666867288,,,,,,,,,,,,,,,,,,,,,,,3,001,2023_Nov_16_1138,experiment_old_ver,2020.1.3,143.72393192331958,
,,,,1,0.105,11,stimoli/disgust_face_005.jpg,,,,,,,,,1,0,1,0,0,35,35,35,0,0,0,0,,,,,,,,,,,,,,,,,,,,,,,,,,,,,,,,,,,,,,,,,303.5724468156077,None,0.00530403819084313,None,304.47506985623386,None,304.4818499200731,None,0.006426965918763017,0.11320532985882892,306.3169827944551,None,305.27864811189284,306.0802439002491,306.0732499377773,None,0.805424121633223,0.8193482201731968,,,,,,,,,,,,,,,3,001,2023_Nov_16_1138,experiment_old_ver,2020.1.3,143.72393192331958,
,,,,1,0.105,11,stimoli/disgust_face_005.jpg,,,,,,,,,1,0,1,0,0,35,35,35,,,,,,,,,,,,,,,,,,,,,,,,,,,,,,,,,,,,,,,,,,,,,,,,,,,,,,,,,,,,,,,,,,,,,,,,,,,,,3,001,2023_Nov_16_1138,experiment_old_ver,2020.1.3,143.72393192331958,
,,,,1,0.105,11,stimoli/disgust_face_011.jpg,,,,,,,,,1,0,1,0,0,36,36,36,,,,,,,,,,,,,,,,,,,,,,,,,,,,,,,,,,,,,,,,,,,,,306.87479986092876,None,0.004790540350768424,None,307.67852982457043,None,307.79931731408243,None,0.005669388216119842,0.015459203703358071,,,,,,,,,,,,,,,,,,,,,,,3,001,2023_Nov_16_1138,experiment_old_ver,2020.1.3,143.72393192331958,
,,,,1,0.105,11,stimoli/disgust_face_009.jpg,,,,,,,,,1,0,1,0,0,37,37,37,,,,,,,,,,,,,,,,,,,,,,,,,,,,,,,,,,,,,,,,,,,,,308.4831783752297,None,0.005230589717029943,None,309.3844347610775,None,309.39121482491674,None,0.006311501069831138,0.11296092926204437,,,,,,,,,,,,,,,,,,,,,,,3,001,2023_Nov_16_1138,experiment_old_ver,2020.1.3,143.72393192331958,
,,,,1,0.245,12,stimoli/disgust_face_010.jpg,,,,,,,,,1,0,1,0,0,38,38,38,,,,,0,0,0,0,,,,,,,,,,,,,,,,,,,,,,,,,,,,,,,,,,,,,310.1871200885744,None,0.005254644894193916,None,311.0931294566226,None,311.42737296300794,None,0.006473472593825136,0.1150880483628498,,,,,,,,,311.89305966453594,None,n,1.2471611684013624,311.89305966453594,None,,,,,,,,,3,001,2023_Nov_16_1138,experiment_old_ver,2020.1.3,143.72393192331958,
,,,,1,0.245,12,stimoli/disgust_face_010.jpg,,,,,,,,,1,0,1,0,0,38,38,38,,,,,,,,,,,,,,,,,,,,,,,,,,,,,,,,,,,,,,,,,,,,,,,,,,,,,,,,,,,,,,,,,,,,,,,,,,,,,3,001,2023_Nov_16_1138,experiment_old_ver,2020.1.3,143.72393192331958,
,,,,1,0.105,11,stimoli/disgust_face_001.jpg,,,,,,,,,1,0,1,0,0,39,39,39,0,0,0,0,,,,,,,,,,,,,,,,,,,,,,,,,,,,,,,,,,,,,,,,,313.1469800168834,None,0.005267153585919004,None,313.9530792550722,None,314.06684584031456,None,0.006546279593749205,0.11528048977652361,315.6518831354609,None,314.7534155143703,315.5545600276091,315.54758819590006,None,0.8051450815819408,0.8190444834735899,,,,,,,,,,,,,,,3,001,2023_Nov_16_1138,experiment_old_ver,2020.1.3,143.72393192331958,
,,,,1,0.105,11,stimoli/disgust_face_001.jpg,,,,,,,,,1,0,1,0,0,39,39,39,,,,,,,,,,,,,,,,,,,,,,,,,,,,,,,,,,,,,,,,,,,,,,,,,,,,,,,,,,,,,,,,,,,,,,,,,,,,,3,001,2023_Nov_16_1138,experiment_old_ver,2020.1.3,143.72393192331958,
,,,,,,,,,,,,,,,,1,0,1,0,,,,,,,,,,,,,,,,,,,,,,,,,,,,,,,,,,,,,,,,,,,,,,,,,,,,,,,,,,,,,,,,,,,,,,,,,,,,,,,,,3,001,2023_Nov_16_1138,experiment_old_ver,2020.1.3,143.72393192331958,
,,,,0,0.95,30,stimoli/disgust_image_015.jpg,,,,,,,,,2,0,2,0,0,0,0,0,,,,,,,,,,,,,,,,,,,,,,,,,,,,,,,,,,,,,,,,,,,,,316.480265453687,None,0.005275492714645225,None,317.2899957406298,318.09564113781653,318.2348138385908,None,0.005600109307124512,0.11424323055234709,,,,,,,,,,,,,,,,,,,,,,,3,001,2023_Nov_16_1138,experiment_old_ver,2020.1.3,143.72393192331958,
,,,,1,0.105,31,stimoli/disgust_image_001.jpg,,,,,,,,,2,0,2,0,0,1,1,1,,,,,,,,,,,,,,,,,,,,,,,,,,,,,,,,,,,,,,,,,,,,,318.3325015587752,None,0.004988434269762365,None,319.13672032360955,None,319.2574706077815,None,0.005999104506372532,0.014649666819423146,,,,,,,,,,,,,,,,,,,,,,,3,001,2023_Nov_16_1138,experiment_old_ver,2020.1.3,143.72393192331958,
,,,,1,0.105,31,stimoli/disgust_image_016.jpg,,,,,,,,,2,0,2,0,0,2,2,2,,,,,,,,,,,,,,,,,,,,,,,,,,,,,,,,,,,,,,,,,,,,,319.9411401897214,None,0.005258172986941645,None,320.8443729488954,None,320.85115301273464,None,0.005856377123564016,0.11210007466797833,,,,,,,,,,,,,,,,,,,,,,,3,001,2023_Nov_16_1138,experiment_old_ver,2020.1.3,143.72393192331958,
,,,,1,0.245,32,stimoli/disgust_image_013.jpg,,,,,,,,,2,0,2,0,0,3,3,3,0,0,0,0,,,,,,,,,,,,,,,,,,,,,,,,,,,,,,,,,,,,,,,,,321.64807115970325,None,0.005256890044620377,None,322.5538588993895,None,322.8874481049655,None,0.005574450451604207,0.11423136333178263,324.25811239989827,None,323.3596386848303,324.16077229305483,324.1538187432807,None,0.8050462949886423,0.8189752045645946,,,,,,,,,,,,,,,3,001,2023_Nov_16_1138,experiment_old_ver,2020.1.3,143.72393192331958,
,,,,1,0.245,32,stimoli/disgust_image_013.jpg,,,,,,,,,2,0,2,0,0,3,3,3,,,,,,,,,,,,,,,,,,,,,,,,,,,,,,,,,,,,,,,,,,,,,,,,,,,,,,,,,,,,,,,,,,,,,,,,,,,,,3,001,2023_Nov_16_1138,experiment_old_ver,2020.1.3,143.72393192331958,
,,,,1,0.105,31,stimoli/disgust_image_012.jpg,,,,,,,,,2,0,2,0,0,4,4,4,,,,,,,,,,,,,,,,,,,,,,,,,,,,,,,,,,,,,,,,,,,,,324.9549295792722,None,0.005039431244767911,None,325.7608126416053,None,325.8815003823168,None,0.0016566639897064306,0.010337054723095207,,,,,,,,,,,,,,,,,,,,,,,3,001,2023_Nov_16_1138,experiment_old_ver,2020.1.3,143.72393192331958,
,,,,0,0.95,30,stimoli/disgust_image_017.jpg,,,,,,,,,2,0,2,0,0,5,5,5,,,,,,,,,,,,,,,,,,,,,,,,,,,,,,,,,,,,,,,,,,,,,326.56647279263325,None,0.005308207754751493,None,327.47307808759433,328.2730602546899,328.41915828049724,None,0.006459039486799156,0.11526028342814243,,,,,,,,,,,,,,,,,,,,,,,3,001,2023_Nov_16_1138,experiment_old_ver,2020.1.3,143.72393192331958,
,,,,0,0.95,30,stimoli/disgust_image_016.jpg,,,,,,,,,2,0,2,0,0,6,6,6,,,,,,,,,,,,,,,,,,,,,,,,,,,,,,,,,,,,,,,,,,,,,328.5168873755865,None,0.005220646910856885,None,329.4235850424275,330.2231072745426,330.3691854147367,None,0.005852528295690718,0.11445235022347333,,,,,,,,,,,,,,,,,,,,,,,3,001,2023_Nov_16_1138,experiment_old_ver,2020.1.3,143.72393192331958,
,,,,0,0.95,30,stimoli/disgust_image_016.jpg,,,,,,,,,2,0,2,0,0,7,7,7,0,0,0,0,,,,,,,,,,,,,,,,,,,,,,,,,,,,,,,,,,,,,,,,,330.45996031858067,None,0.005293453911690449,None,331.26649511583673,332.0720747622063,332.2112230870683,None,0.00579094704335148,0.014348175271152286,333.34671531371833,None,332.30895025774316,333.1100412081214,333.10308477172657,None,0.8050687464883595,0.818960129988227,,,,,,,,,,,,,,,3,001,2023_Nov_16_1138,experiment_old_ver,2020.1.3,143.72393192331958,
,,,,0,0.95,30,stimoli/disgust_image_016.jpg,,,,,,,,,2,0,2,0,0,7,7,7,,,,,,,,,,,,,,,,,,,,,,,,,,,,,,,,,,,,,,,,,,,,,,,,,,,,,,,,,,,,,,,,,,,,,,,,,,,,,3,001,2023_Nov_16_1138,experiment_old_ver,2020.1.3,143.72393192331958,
,,,,0,0.95,30,stimoli/disgust_image_003.jpg,,,,,,,,,2,0,2,0,0,8,8,8,,,,,,,,,,,,,,,,,,,,,,,,,,,,,,,,,,,,,,,,,,,,,333.9042100408233,None,0.005034940944824484,None,334.7064617336664,335.5098882813445,335.6490580954972,None,0.005878828622371657,0.01452393842919264,,,,,,,,,,,,,,,,,,,,,,,3,001,2023_Nov_16_1138,experiment_old_ver,2020.1.3,143.72393192331958,
,,,,0,0.95,30,stimoli/disgust_image_017.jpg,,,,,,,,,2,0,2,0,0,9,9,9,,,,,0,0,0,0,,,,,,,,,,,,,,,,,,,,,,,,,,,,,,,,,,,,,335.75373977815343,None,0.005296019798151974,None,336.55606652314873,337.35950654172484,337.49867026190014,None,0.006182886058013537,0.014808751723649038,,,,,,,,,337.60331473921633,None,n,2.0065683462098605,337.60331473921633,None,,,,,,,,,3,001,2023_Nov_16_1138,experiment_old_ver,2020.1.3,143.72393192331958,
,,,,0,0.95,30,stimoli/disgust_image_017.jpg,,,,,,,,,2,0,2,0,0,9,9,9,,,,,,,,,,,,,,,,,,,,,,,,,,,,,,,,,,,,,,,,,,,,,,,,,,,,,,,,,,,,,,,,,,,,,,,,,,,,,3,001,2023_Nov_16_1138,experiment_old_ver,2020.1.3,143.72393192331958,
,,,,0,0.95,30,stimoli/disgust_image_007.jpg,,,,,,,,,2,0,2,0,0,10,10,10,,,,,,,,,,,,,,,,,,,,,,,,,,,,,,,,,,,,,,,,,,,,,339.6166310436229,None,0.005253041214928089,None,340.52301406875085,341.322804756639,341.468891556697,None,0.006256976002077863,0.11493056713788974,,,,,,,,,,,,,,,,,,,,,,,3,001,2023_Nov_16_1138,experiment_old_ver,2020.1.3,143.72393192331958,
,,,,1,0.245,32,stimoli/disgust_image_003.jpg,,,,,,,,,2,0,2,0,0,11,11,11,0,0,0,0,,,,,,,,,,,,,,,,,,,,,,,,,,,,,,,,,,,,,,,,,341.5736078788086,None,0.005296982006257167,None,342.3764686487275,None,342.6164280500046,None,0.0059442587044031825,0.014596424696719623,344.21801979708954,None,343.1801777645496,343.98135435135737,343.9743963112833,None,0.8050475779318731,0.8189636580800652,,,,,,,,,,,,,,,3,001,2023_Nov_16_1138,experiment_old_ver,2020.1.3,143.72393192331958,
,,,,1,0.245,32,stimoli/disgust_image_003.jpg,,,,,,,,,2,0,2,0,0,11,11,11,,,,,,,,,,,,,,,,,,,,,,,,,,,,,,,,,,,,,,,,,,,,,,,,,,,,,,,,,,,,,,,,,,,,,,,,,,,,,3,001,2023_Nov_16_1138,experiment_old_ver,2020.1.3,143.72393192331958,
,,,,0,0.95,30,stimoli/disgust_image_004.jpg,,,,,,,,,2,0,2,0,0,12,12,12,,,,,,,,,,,,,,,,,,,,,,,,,,,,,,,,,,,,,,,,,,,,,344.775512599781,None,0.005014734597352799,None,345.58305226195625,346.3837862335113,346.52987848607637,None,0.0061017399275442585,0.1147099009831436,,,,,,,,,,,,,,,,,,,,,,,3,001,2023_Nov_16_1138,experiment_old_ver,2020.1.3,143.72393192331958,
,,,,1,0.245,32,stimoli/disgust_image_002.jpg,,,,,,,,,2,0,2,0,0,13,13,13,,,,,,,,,,,,,,,,,,,,,,,,,,,,,,,,,,,,,,,,,,,,,346.6275969968874,None,0.005270040207506099,None,347.53299504270944,None,347.8669197378179,None,0.006205658291037253,0.11481317787547596,,,,,,,,,,,,,,,,,,,,,,,3,001,2023_Nov_16_1138,experiment_old_ver,2020.1.3,143.72393192331958,
,,,,0,0.95,30,stimoli/disgust_image_010.jpg,,,,,,,,,2,0,2,0,0,14,14,14,,,,,,,,,,,,,,,,,,,,,,,,,,,,,,,,,,,,,,,,,,,,,348.33235594477173,None,0.005290246554977784,None,349.1400883690976,349.9396930302855,350.0858215259835,None,0.002015246492192091,0.010661639242243837,,,,,,,,,,,,,,,,,,,,,,,3,001,2023_Nov_16_1138,experiment_old_ver,2020.1.3,143.72393192331958,
,,,,1,0.245,32,stimoli/disgust_image_001.jpg,,,,,,,,,2,0,2,0,0,15,15,15,0,0,0,0,,,,,,,,,,,,,,,,,,,,,,,,,,,,,,,,,,,,,,,,,350.1695816195361,None,0.005309169961947191,None,351.07393214259173,None,351.3085705387587,None,0.006032140282513865,0.11246571335595945,352.77662173587333,None,351.8781383987334,352.6792643093022,352.6723072314353,None,0.8050815759152101,0.8189870717860686,,,,,,,,,,,,,,,3,001,2023_Nov_16_1138,experiment_old_ver,2020.1.3,143.72393192331958,
,,,,1,0.245,32,stimoli/disgust_image_001.jpg,,,,,,,,,2,0,2,0,0,15,15,15,,,,,,,,,,,,,,,,,,,,,,,,,,,,,,,,,,,,,,,,,,,,,,,,,,,,,,,,,,,,,,,,,,,,,,,,,,,,,3,001,2023_Nov_16_1138,experiment_old_ver,2020.1.3,143.72393192331958,
,,,,0,0.95,30,stimoli/disgust_image_020.jpg,,,,,,,,,2,0,2,0,0,16,16,16,,,,,,,,,,,,,,,,,,,,,,,,,,,,,,,,,,,,,,,,,,,,,353.4734062002062,None,0.005096842934108281,None,354.2782218541606,355.08329858696743,355.2225354348796,None,0.005429477920188219,0.015235650927024835,,,,,,,,,,,,,,,,,,,,,,,3,001,2023_Nov_16_1138,experiment_old_ver,2020.1.3,143.72393192331958,
,,,,0,0.95,30,stimoli/disgust_image_004.jpg,,,,,,,,,2,0,2,0,0,17,17,17,,,,,,,,,,,,,,,,,,,,,,,,,,,,,,,,,,,,,,,,,,,,,355.3202982072162,None,0.005288322142405377,None,356.2241640986431,357.0282920952768,357.0698771133278,None,0.0061190596543383435,0.11260427117304062,,,,,,,,,,,,,,,,,,,,,,,3,001,2023_Nov_16_1138,experiment_old_ver,2020.1.3,143.72393192331958,
,,,,1,0.245,32,stimoli/disgust_image_011.jpg,,,,,,,,,2,0,2,0,0,18,18,18,,,,,0,0,0,0,,,,,,,,,,,,,,,,,,,,,,,,,,,,,,,,,,,,,357.17467233641855,None,0.0052113455758444616,None,357.9990041156807,None,358.2406586050823,None,0.004677769681620703,0.014330951764350175,,,,,,,,,358.8011313630759,361.8052746267276,n,3.43663096664568,358.8011313630759,None,,,,,,,,,3,001,2023_Nov_16_1138,experiment_old_ver,2020.1.3,143.72393192331958,
,,,,1,0.245,32,stimoli/disgust_image_011.jpg,,,,,,,,,2,0,2,0,0,18,18,18,,,,,,,,,,,,,,,,,,,,,,,,,,,,,,,,,,,,,,,,,,,,,,,,,,,,,,,,,,,,,,,,,,,,,,,,,,,,,3,001,2023_Nov_16_1138,experiment_old_ver,2020.1.3,143.72393192331958,
,,,,0,0.95,40,stimoli/happy_image_002.jpg,,,,,,,,,2,0,2,0,0,19,19,19,0,0,0,0,,,,,,,,,,,,,,,,,,,,,,,,,,,,,,,,,,,,,,,,,362.2445388333945,None,0.0053428472092491575,None,363.14464441958444,363.94691824318943,364.0442333326494,None,0.006242799483516137,0.05864138927336171,365.17279895132316,None,364.13499572780074,364.9361094504129,364.9291482029821,None,0.804940772946793,0.8188850778360575,,,,,,,,,,,,,,,3,001,2023_Nov_16_1138,experiment_old_ver,2020.1.3,143.72393192331958,
,,,,0,0.95,40,stimoli/happy_image_002.jpg,,,,,,,,,2,0,2,0,0,19,19,19,,,,,,,,,,,,,,,,,,,,,,,,,,,,,,,,,,,,,,,,,,,,,,,,,,,,,,,,,,,,,,,,,,,,,,,,,,,,,3,001,2023_Nov_16_1138,experiment_old_ver,2020.1.3,143.72393192331958,
,,,,0,0.95,10,stimoli/disgust_face_004.jpg,,,,,,,,,2,0,2,0,0,20,20,20,,,,,,,,,,,,,,,,,,,,,,,,,,,,,,,,,,,,,,,,,,,,,365.7302959235776,None,0.005041997132138931,None,366.63344465000046,367.437118484896,367.47868971131203,None,0.0062726920514251105,0.11291025302307389,,,,,,,,,,,,,,,,,,,,,,,3,001,2023_Nov_16_1138,experiment_old_ver,2020.1.3,143.72393192331958,
,,,,0,0.95,10,stimoli/disgust_face_002.jpg,,,,,,,,,2,0,2,0,0,21,21,21,,,,,,,,,,,,,,,,,,,,,,,,,,,,,,,,,,,,,,,,,,,,,367.56948770812596,None,0.005302113776451733,None,368.375402523292,369.18061717244564,369.3197427250728,None,0.006500414390757214,0.015127562999623478,,,,,,,,,,,,,,,,,,,,,,,3,001,2023_Nov_16_1138,experiment_old_ver,2020.1.3,143.72393192331958,
,,,,0,0.95,10,stimoli/disgust_face_006.jpg,,,,,,,,,2,0,2,0,0,22,22,22,,,,,,,,,,,,,,,,,,,,,,,,,,,,,,,,,,,,,,,,,,,,,369.42444397260715,None,0.005074712171335705,None,370.2325173389718,371.03355440575433,371.17966237436787,None,0.006258900415559765,0.11494852833675395,,,,,,,,,,,,,,,,,,,,,,,3,001,2023_Nov_16_1138,experiment_old_ver,2020.1.3,143.72393192331958,
,,,,1,0.105,11,stimoli/disgust_face_018.jpg,,,,,,,,,2,0,2,0,0,23,23,23,0,0,0,0,,,,,,,,,,,,,,,,,,,,,,,,,,,,,,,,,,,,,,,,,371.2704225243697,None,0.005331942195880401,None,372.0753982254337,None,372.1961279825212,None,0.006422154881875031,0.015046737605189264,373.9180203102672,None,372.8801590335852,373.68130001873124,373.6743422993932,None,0.8050883113646705,0.8190419175889474,,,,,,,,,,,,,,,3,001,2023_Nov_16_1138,experiment_old_ver,2020.1.3,143.72393192331958,
,,,,1,0.105,11,stimoli/disgust_face_018.jpg,,,,,,,,,2,0,2,0,0,23,23,23,,,,,,,,,,,,,,,,,,,,,,,,,,,,,,,,,,,,,,,,,,,,,,,,,,,,,,,,,,,,,,,,,,,,,,,,,,,,,3,001,2023_Nov_16_1138,experiment_old_ver,2020.1.3,143.72393192331958,
,,,,1,0.245,12,stimoli/disgust_face_016.jpg,,,,,,,,,2,0,2,0,0,24,24,24,,,,,,,,,,,,,,,,,,,,,,,,,,,,,,,,,,,,,,,,,,,,,374.47549707617327,None,0.005065731572358345,None,375.2824135489018,None,375.60985810011545,None,0.006328179324555094,0.1149729042490435,,,,,,,,,,,,,,,,,,,,,,,3,001,2023_Nov_16_1138,experiment_old_ver,2020.1.3,143.72393192331958,
,,,,1,0.245,12,stimoli/disgust_face_003.jpg,,,,,,,,,2,0,2,0,0,25,25,25,,,,,,,,,,,,,,,,,,,,,,,,,,,,,,,,,,,,,,,,,,,,,376.0829290994516,None,0.005233155602581974,None,376.88601310141166,None,377.1260905334223,None,0.005665539388246543,0.014306800367194228,,,,,,,,,,,,,,,,,,,,,,,3,001,2023_Nov_16_1138,experiment_old_ver,2020.1.3,143.72393192331958,
,,,,1,0.245,12,stimoli/disgust_face_016.jpg,,,,,,,,,2,0,2,0,0,26,26,26,,,,,,,,,,,,,,,,,,,,,,,,,,,,,,,,,,,,,,,,,,,,,377.68997239107193,None,0.005216156611822953,None,378.5934453812779,None,378.82804689284086,None,0.00586247110277327,0.11211707365964685,,,,,,,,,,,,,,,,,,,,,,,3,001,2023_Nov_16_1138,experiment_old_ver,2020.1.3,143.72393192331958,
,,,,0,0.95,10,stimoli/disgust_face_007.jpg,,,,,,,,,2,0,2,0,0,27,27,27,0,0,0,0,,,,,,,,,,,,,,,,,,,,,,,,,,,,,,,,,,,,,,,,,379.39719555126794,None,0.005041997130319942,None,380.302852430792,381.1088243369113,381.247961756759,None,0.005793512927994016,0.11442155959684897,382.25115115246746,None,381.3526354210235,382.1538219506374,382.1468497981932,None,0.805104989620304,0.8190088818128061,,,,,,,,,,,,,,,3,001,2023_Nov_16_1138,experiment_old_ver,2020.1.3,143.72393192331958,
,,,,0,0.95,10,stimoli/disgust_face_007.jpg,,,,,,,,,2,0,2,0,0,27,27,27,,,,,,,,,,,,,,,,,,,,,,,,,,,,,,,,,,,,,,,,,,,,,,,,,,,,,,,,,,,,,,,,,,,,,,,,,,,,,3,001,2023_Nov_16_1138,experiment_old_ver,2020.1.3,143.72393192331958,
,,,,1,0.105,11,stimoli/disgust_face_013.jpg,,,,,,,,,2,0,2,0,0,28,28,28,,,,,,,,,,,,,,,,,,,,,,,,,,,,,,,,,,,,,,,,,,,,,382.94798533083303,None,0.004947700837874436,None,383.853220763659,None,383.9739094665786,None,0.0014816064494880266,0.08975961501437268,,,,,,,,,,,,,,,,,,,,,,,3,001,2023_Nov_16_1138,experiment_old_ver,2020.1.3,143.72393192331958,
,,,,1,0.105,11,stimoli/disgust_face_018.jpg,,,,,,,,,2,0,2,0,0,29,29,29,,,,,,,,,,,,,,,,,,,,,,,,,,,,,,,,,,,,,,,,,,,,,384.65784718355553,None,0.005210062633523194,None,385.56292513515837,None,385.676688513044,None,0.005938806196354562,0.11463324515261775,,,,,,,,,,,,,,,,,,,,,,,3,001,2023_Nov_16_1138,experiment_old_ver,2020.1.3,143.72393192331958,
,,,,1,0.105,21,stimoli/happy_face_003.jpg,,,,,,,,,2,0,2,0,0,30,30,30,,,,,0,0,0,0,,,,,,,,,,,,,,,,,,,,,,,,,,,,,,,,,,,,,386.368764256702,None,0.00521487366859219,None,387.2733742549308,None,387.39406456152875,None,0.004085338786353532,0.09497702249518625,,,,,,,,,388.07769308930074,None,p,1.1566832337339292,388.07769308930074,None,,,,,,,,,3,001,2023_Nov_16_1138,experiment_old_ver,2020.1.3,143.72393192331958,
,,,,1,0.105,21,stimoli/happy_face_003.jpg,,,,,,,,,2,0,2,0,0,30,30,30,,,,,,,,,,,,,,,,,,,,,,,,,,,,,,,,,,,,,,,,,,,,,,,,,,,,,,,,,,,,,,,,,,,,,,,,,,,,,3,001,2023_Nov_16_1138,experiment_old_ver,2020.1.3,143.72393192331958,
,,,,0,0.95,10,stimoli/disgust_face_018.jpg,,,,,,,,,2,0,2,0,0,31,31,31,0,0,0,0,,,,,,,,,,,,,,,,,,,,,,,,,,,,,,,,,,,,,,,,,389.2411095273901,None,0.005294736855830706,None,390.04507042072873,390.8493170895672,390.9884593204509,None,0.006338122131637647,0.014973930603446206,391.9777111467204,None,391.0792268473733,391.8803700776698,391.8734283951153,None,0.8051146116913515,0.8189902791427812,,,,,,,,,,,,,,,3,001,2023_Nov_16_1138,experiment_old_ver,2020.1.3,143.72393192331958,
,,,,0,0.95,10,stimoli/disgust_face_018.jpg,,,,,,,,,2,0,2,0,0,31,31,31,,,,,,,,,,,,,,,,,,,,,,,,,,,,,,,,,,,,,,,,,,,,,,,,,,,,,,,,,,,,,,,,,,,,,,,,,,,,,3,001,2023_Nov_16_1138,experiment_old_ver,2020.1.3,143.72393192331958,
,,,,1,0.245,12,stimoli/disgust_face_001.jpg,,,,,,,,,2,0,2,0,0,32,32,32,,,,,,,,,,,,,,,,,,,,,,,,,,,,,,,,,,,,,,,,,,,,,392.67453153345014,None,0.004681810951296939,None,393.58199543785577,None,393.91656545317375,None,0.006562637115166581,0.11538280446256977,,,,,,,,,,,,,,,,,,,,,,,3,001,2023_Nov_16_1138,experiment_old_ver,2020.1.3,143.72393192331958,
,,,,1,0.245,12,stimoli/disgust_face_019.jpg,,,,,,,,,2,0,2,0,0,33,33,33,,,,,,,,,,,,,,,,,,,,,,,,,,,,,,,,,,,,,,,,,,,,,394.3824218238833,None,0.005292491705404245,None,395.18535155197605,None,395.42532442415114,None,0.006140548946859781,0.01477892330422037,,,,,,,,,,,,,,,,,,,,,,,3,001,2023_Nov_16_1138,experiment_old_ver,2020.1.3,143.72393192331958,
,,,,1,0.245,12,stimoli/disgust_face_007.jpg,,,,,,,,,2,0,2,0,0,34,34,34,,,,,,,,,,,,,,,,,,,,,,,,,,,,,,,,,,,,,,,,,,,,,395.98913571994945,None,0.005270360943541164,None,396.8930907758986,None,397.12771153160276,None,0.00610687169864832,0.11257251834013005,,,,,,,,,,,,,,,,,,,,,,,3,001,2023_Nov_16_1138,experiment_old_ver,2020.1.3,143.72393192331958,
,,,,1,0.245,12,stimoli/disgust_face_017.jpg,,,,,,,,,2,0,2,0,0,35,35,35,0,0,0,0,,,,,,,,,,,,,,,,,,,,,,,,,,,,,,,,,,,,,,,,,397.69715815348627,None,0.005245022824055923,None,398.6018999740845,None,398.93584166818465,None,0.006547241800944903,0.11517977876883378,400.43905704348464,None,399.40127338483944,400.2024050686505,400.19542938811355,None,0.8049837515291074,0.8189193965545201,,,,,,,,,,,,,,,3,001,2023_Nov_16_1138,experiment_old_ver,2020.1.3,143.72393192331958,
,,,,1,0.245,12,stimoli/disgust_face_017.jpg,,,,,,,,,2,0,2,0,0,35,35,35,,,,,,,,,,,,,,,,,,,,,,,,,,,,,,,,,,,,,,,,,,,,,,,,,,,,,,,,,,,,,,,,,,,,,,,,,,,,,3,001,2023_Nov_16_1138,experiment_old_ver,2020.1.3,143.72393192331958,
,,,,1,0.105,11,stimoli/disgust_face_002.jpg,,,,,,,,,2,0,2,0,0,36,36,36,,,,,,,,,,,,,,,,,,,,,,,,,,,,,,,,,,,,,,,,,,,,,400.99654631808244,None,0.004886440320660768,None,401.901775656931,None,402.01553294083834,None,0.006384308071574196,0.11498220558496541,,,,,,,,,,,,,,,,,,,,,,,3,001,2023_Nov_16_1138,experiment_old_ver,2020.1.3,143.72393192331958,
,,,,0,0.95,10,stimoli/disgust_face_013.jpg,,,,,,,,,2,0,2,0,0,37,37,37,,,,,,,,,,,,,,,,,,,,,,,,,,,,,,,,,,,,,,,,,,,,,402.70126549474116,None,0.005296340533277544,None,403.50493131124495,404.30903781858706,404.4481848605058,None,0.006412212075701973,0.015029097142360115,,,,,,,,,,,,,,,,,,,,,,,3,001,2023_Nov_16_1138,experiment_old_ver,2020.1.3,143.72393192331958,
,,,,0,0.95,10,stimoli/disgust_face_013.jpg,,,,,,,,,2,0,2,0,0,38,38,38,,,,,,,,,,,,,,,,,,,,,,,,,,,,,,,,,,,,,,,,,,,,,404.5458825234973,None,0.005253041214928089,None,405.45172382604324,406.25155973766414,406.39763691565196,None,0.0064452478527528,0.11504795640121301,,,,,,,,,,,,,,,,,,,,,,,3,001,2023_Nov_16_1138,experiment_old_ver,2020.1.3,143.72393192331958,
,,,,0,0.95,10,stimoli/disgust_face_017.jpg,,,,,,,,,2,0,2,0,0,39,39,39,0,0,0,0,,,,,,,,,,,,,,,,,,,,,,,,,,,,,,,,,,,,,,,,,406.5023327106783,None,0.005330017781489005,None,407.30647257453256,408.11115961347514,408.2503576523689,None,0.006258258944399131,0.016034924268751638,409.2470960911299,None,408.3481601959311,409.1496828565496,409.1427328348673,None,0.8055652453376752,0.8194662509076807,,,,,,,,,,,,,,,3,001,2023_Nov_16_1138,experiment_old_ver,2020.1.3,143.72393192331958,
,,,,0,0.95,10,stimoli/disgust_face_017.jpg,,,,,,,,,2,0,2,0,0,39,39,39,,,,,0,0,0,0,,,,,,,,,,,,,,,,,,,,,,,,,,,,,,,,,,,,,,,,,,,,,,,,,,,,,,,409.9442660797631,None,n,1.3664722794555928,409.9442660797631,None,,,,,,,,,3,001,2023_Nov_16_1138,experiment_old_ver,2020.1.3,143.72393192331958,
,,,,0,0.95,10,stimoli/disgust_face_017.jpg,,,,,,,,,2,0,2,0,0,39,39,39,,,,,,,,,,,,,,,,,,,,,,,,,,,,,,,,,,,,,,,,,,,,,,,,,,,,,,,,,,,,,,,,,,,,,,,,,,,,,3,001,2023_Nov_16_1138,experiment_old_ver,2020.1.3,143.72393192331958,
,,,,,,,,,,,,,,,,2,0,2,0,,,,,,,,,,,,,,,,,,,,,,,,,,,,,,,,,,,,,,,,,,,,,,,,,,,,,,,,,,,,,,,,,,,,,,,,,,,,,,,,,3,001,2023_Nov_16_1138,experiment_old_ver,2020.1.3,143.72393192331958,
,,,,0,0.95,30,stimoli/disgust_image_014.jpg,,,,,,,,,3,0,3,0,0,0,0,0,,,,,,,,,,,,,,,,,,,,,,,,,,,,,,,,,,,,,,,,,,,,,411.4506746995994,None,0.004472049808100564,None,412.26117218631407,413.0647526871235,413.20392923672654,None,0.006111361997682252,0.1170031611709419,,,,,,,,,,,,,,,,,,,,,,,3,001,2023_Nov_16_1138,experiment_old_ver,2020.1.3,143.72393192331958,
,,,,1,0.245,32,stimoli/disgust_image_011.jpg,,,,,,,,,3,0,3,0,0,1,1,1,,,,,,,,,,,,,,,,,,,,,,,,,,,,,,,,,,,,,,,,,,,,,413.3016060518976,None,0.0049765670510169,None,414.1264577437141,None,414.3680140879945,None,0.0049898455072252546,0.013529433272196911,,,,,,,,,,,,,,,,,,,,,,,3,001,2023_Nov_16_1138,experiment_old_ver,2020.1.3,143.72393192331958,
,,,,1,0.105,31,stimoli/disgust_image_019.jpg,,,,,,,,,3,0,3,0,0,2,2,2,,,,,,,,,,,,,,,,,,,,,,,,,,,,,,,,,,,,,,,,,,,,,414.928440018577,None,0.0052068552759010345,None,415.8328428215509,None,415.9535414672758,None,8.733632785151713e-05,0.09378545732943167,,,,,,,,,,,,,,,,,,,,,,,3,001,2023_Nov_16_1138,experiment_old_ver,2020.1.3,143.72393192331958,
,,,,0,0.95,30,stimoli/disgust_image_012.jpg,,,,,,,,,3,0,3,0,0,3,3,3,0,0,0,0,,,,,,,,,,,,,,,,,,,,,,,,,,,,,,,,,,,,,,,,,416.6371154699809,None,0.0053062833394506015,None,417.5445758462929,418.34890686861945,418.49499815897735,None,0.0035249493885203265,0.11212380910910724,419.6166544894016,None,418.57878070402785,419.3799277831522,419.3729511404081,None,0.8051142909562259,0.8190585958445809,,,,,,,,,,,,,,,3,001,2023_Nov_16_1138,experiment_old_ver,2020.1.3,143.72393192331958,
,,,,0,0.95,30,stimoli/disgust_image_012.jpg,,,,,,,,,3,0,3,0,0,3,3,3,,,,,,,,,,,,,,,,,,,,,,,,,,,,,,,,,,,,,,,,,,,,,,,,,,,,,,,,,,,,,,,,,,,,,,,,,,,,,3,001,2023_Nov_16_1138,experiment_old_ver,2020.1.3,143.72393192331958,
,,,,1,0.245,32,stimoli/disgust_image_011.jpg,,,,,,,,,3,0,3,0,0,4,4,4,,,,,,,,,,,,,,,,,,,,,,,,,,,,,,,,,,,,,,,,,,,,,420.1740937292325,None,0.00471292231213738,None,421.10298053262704,None,421.4297300495985,None,0.005106914034513466,0.1136323252812872,,,,,,,,,,,,,,,,,,,,,,,3,001,2023_Nov_16_1138,experiment_old_ver,2020.1.3,143.72393192331958,
,,,,0,0.95,30,stimoli/disgust_image_007.jpg,,,,,,,,,3,0,3,0,0,5,5,5,,,,,,,,,,,,,,,,,,,,,,,,,,,,,,,,,,,,,,,,,,,,,421.90382130916623,None,0.005249192387054791,None,422.7247125566737,423.5265501797403,423.6656965801879,None,0.00671889954173821,0.11199654118536273,,,,,,,,,,,,,,,,,,,,,,,3,001,2023_Nov_16_1138,experiment_old_ver,2020.1.3,143.72393192331958,
,,,,1,0.105,31,stimoli/disgust_image_011.jpg,,,,,,,,,3,0,3,0,0,6,6,6,,,,,,,,,,,,,,,,,,,,,,,,,,,,,,,,,,,,,,,,,,,,,423.7704215621625,None,0.005295057590956276,None,424.5963554161999,None,424.71702423350627,None,0.0049436595681982,0.013480681447617826,,,,,,,,,,,,,,,,,,,,,,,3,001,2023_Nov_16_1138,experiment_old_ver,2020.1.3,143.72393192331958,
,,,,1,0.245,32,stimoli/disgust_image_014.jpg,,,,,,,,,3,0,3,0,0,7,7,7,0,0,0,0,,,,,,,,,,,,,,,,,,,,,,,,,,,,,,,,,,,,,,,,,425.3987370069972,None,0.005271964620988001,None,426.3027222121018,None,426.5373371945637,None,0.006640960769800586,0.10009917147544911,428.14457228612747,None,427.1067706662834,427.9078904828739,427.9009378953069,None,0.8050838210647271,0.8189938072346195,,,,,,,,,,,,,,,3,001,2023_Nov_16_1138,experiment_old_ver,2020.1.3,143.72393192331958,
,,,,1,0.245,32,stimoli/disgust_image_014.jpg,,,,,,,,,3,0,3,0,0,7,7,7,,,,,,,,,,,,,,,,,,,,,,,,,,,,,,,,,,,,,,,,,,,,,,,,,,,,,,,,,,,,,,,,,,,,,,,,,,,,,3,001,2023_Nov_16_1138,experiment_old_ver,2020.1.3,143.72393192331958,
,,,,1,0.245,32,stimoli/disgust_image_002.jpg,,,,,,,,,3,0,3,0,0,8,8,8,,,,,0,0,0,0,,,,,,,,,,,,,,,,,,,,,,,,,,,,,,,,,,,,,428.70207150353235,None,0.005038469037572213,None,429.50476003838594,None,429.744723609226,None,0.006150812488158408,0.014792394202231662,,,,,,,,,430.30841591208264,None,n,1.3029290866215888,430.30841591208264,None,,,,,,,,,3,001,2023_Nov_16_1138,experiment_old_ver,2020.1.3,143.72393192331958,
,,,,1,0.245,32,stimoli/disgust_image_002.jpg,,,,,,,,,3,0,3,0,0,8,8,8,,,,,,,,,,,,,,,,,,,,,,,,,,,,,,,,,,,,,,,,,,,,,,,,,,,,,,,,,,,,,,,,,,,,,,,,,,,,,3,001,2023_Nov_16_1138,experiment_old_ver,2020.1.3,143.72393192331958,
,,,,1,0.105,31,stimoli/disgust_image_018.jpg,,,,,,,,,3,0,3,0,0,9,9,9,,,,,,,,,,,,,,,,,,,,,,,,,,,,,,,,,,,,,,,,,,,,,431.6488409253607,None,0.0044022897964168806,None,432.458879439303,None,432.5726517977876,None,0.00490411285773007,0.11363190832616965,,,,,,,,,,,,,,,,,,,,,,,3,001,2023_Nov_16_1138,experiment_old_ver,2020.1.3,143.72393192331958,
,,,,0,0.95,30,stimoli/disgust_image_015.jpg,,,,,,,,,3,0,3,0,0,10,10,10,,,,,,,,,,,,,,,,,,,,,,,,,,,,,,,,,,,,,,,,,,,,,433.26093355896046,None,0.005263625493171276,None,434.1625716202798,434.9656264352925,435.0141736629815,None,0.004899943294731202,0.1101605859466872,,,,,,,,,,,,,,,,,,,,,,,3,001,2023_Nov_16_1138,experiment_old_ver,2020.1.3,143.72393192331958,
,,,,0,0.95,30,stimoli/disgust_image_011.jpg,,,,,,,,,3,0,3,0,0,11,11,11,0,0,0,0,,,,,,,,,,,,,,,,,,,,,,,,,,,,,,,,,,,,,,,,,435.1118787028936,None,0.005318471296959615,None,435.936095979514,436.73779857285444,436.8839921778984,None,0.00497797828847979,0.013521414881324745,438.02640395633927,None,436.98861516592297,437.7897689804968,437.78279426216704,None,0.805078368557588,0.818996373119262,,,,,,,,,,,,,,,3,001,2023_Nov_16_1138,experiment_old_ver,2020.1.3,143.72393192331958,
,,,,0,0.95,30,stimoli/disgust_image_011.jpg,,,,,,,,,3,0,3,0,0,11,11,11,,,,,,,,,,,,,,,,,,,,,,,,,,,,,,,,,,,,,,,,,,,,,,,,,,,,,,,,,,,,,,,,,,,,,,,,,,,,,3,001,2023_Nov_16_1138,experiment_old_ver,2020.1.3,143.72393192331958,
,,,,0,0.95,40,stimoli/neutral_image_002.jpg,,,,,,,,,3,0,3,0,0,12,12,12,,,,,,,,,,,,,,,,,,,,,,,,,,,,,,,,,,,,,,,,,,,,,438.58392145567814,None,0.005014093126192165,None,439.42930440126383,440.2340629642649,440.3802434191451,None,0.002213300781477301,0.08262558726710267,,,,,,,,,,,,,,,,,,,,,,,3,001,2023_Nov_16_1138,experiment_old_ver,2020.1.3,143.72393192331958,
,,,,1,0.245,32,stimoli/disgust_image_010.jpg,,,,,,,,,3,0,3,0,0,13,13,13,,,,,,,,,,,,,,,,,,,,,,,,,,,,,,,,,,,,,,,,,,,,,440.47788399118417,None,0.005327772631062544,None,441.288868033942,None,441.52986501517745,None,0.0018811789732353645,0.010509931259548466,,,,,,,,,,,,,,,,,,,,,,,3,001,2023_Nov_16_1138,experiment_old_ver,2020.1.3,143.72393192331958,
,,,,0,0.95,40,stimoli/neutral_image_002.jpg,,,,,,,,,3,0,3,0,0,14,14,14,,,,,,,,,,,,,,,,,,,,,,,,,,,,,,,,,,,,,,,,,,,,,442.09004301707137,None,0.005196591733692912,None,442.8948888201803,443.6997067192842,443.838844780604,None,0.00598627507861238,0.014648704613136942,,,,,,,,,,,,,,,,,,,,,,,3,001,2023_Nov_16_1138,experiment_old_ver,2020.1.3,143.72393192331958,
,,,,0,0.95,30,stimoli/disgust_image_017.jpg,,,,,,,,,3,0,3,0,0,15,15,15,0,0,0,0,,,,,,,,,,,,,,,,,,,,,,,,,,,,,,,,,,,,,,,,,443.94355404653015,None,0.0049759255789467716,None,444.7514105955679,445.552375817555,445.6984741640984,None,0.006252164967008866,0.11494596245120192,446.70169755779017,None,445.80318759958845,446.6043205663427,446.5973631677398,None,0.8047358228404846,0.8186371491474347,,,,,,,,,,,,,,,3,001,2023_Nov_16_1138,experiment_old_ver,2020.1.3,143.72393192331958,
,,,,0,0.95,30,stimoli/disgust_image_017.jpg,,,,,,,,,3,0,3,0,0,15,15,15,,,,,,,,,,,,,,,,,,,,,,,,,,,,,,,,,,,,,,,,,,,,,,,,,,,,,,,,,,,,,,,,,,,,,,,,,,,,,3,001,2023_Nov_16_1138,experiment_old_ver,2020.1.3,143.72393192331958,
,,,,1,0.245,32,stimoli/disgust_image_012.jpg,,,,,,,,,3,0,3,0,0,16,16,16,,,,,,,,,,,,,,,,,,,,,,,,,,,,,,,,,,,,,,,,,,,,,447.3985015870003,None,0.005051939937402494,None,448.3022154497103,None,448.53683011143613,None,0.003521100560647028,0.10740001385693176,,,,,,,,,,,,,,,,,,,,,,,3,001,2023_Nov_16_1138,experiment_old_ver,2020.1.3,143.72393192331958,
,,,,1,0.105,31,stimoli/disgust_image_020.jpg,,,,,,,,,3,0,3,0,0,17,17,17,,,,,,,,,,,,,,,,,,,,,,,,,,,,,,,,,,,,,,,,,,,,,449.1061660795067,None,0.005250796066320618,None,450.0122620461916,None,450.1260039347856,None,0.005472777238537674,0.11412199246206,,,,,,,,,,,,,,,,,,,,,,,3,001,2023_Nov_16_1138,experiment_old_ver,2020.1.3,143.72393192331958,
,,,,1,0.245,32,stimoli/disgust_image_004.jpg,,,,,,,,,3,0,3,0,0,18,18,18,,,,,0,0,0,0,,,,,,,,,,,,,,,,,,,,,,,,,,,,,,,,,,,,,450.8180867346282,None,0.005278700071357889,None,451.72233237711316,None,451.9569836027088,None,0.006205016819876619,0.11276463901958778,,,,,,,,,452.5265177854353,None,n,1.4631080186481995,452.5265177854353,None,,,,,,,,,3,001,2023_Nov_16_1138,experiment_old_ver,2020.1.3,143.72393192331958,
,,,,1,0.245,32,stimoli/disgust_image_004.jpg,,,,,,,,,3,0,3,0,0,18,18,18,,,,,,,,,,,,,,,,,,,,,,,,,,,,,,,,,,,,,,,,,,,,,,,,,,,,,,,,,,,,,,,,,,,,,,,,,,,,,3,001,2023_Nov_16_1138,experiment_old_ver,2020.1.3,143.72393192331958,
,,,,1,0.245,32,stimoli/disgust_image_004.jpg,,,,,,,,,3,0,3,0,0,19,19,19,0,0,0,0,,,,,,,,,,,,,,,,,,,,,,,,,,,,,,,,,,,,,,,,,453.99641192982835,None,0.005362412085560209,None,454.80134561451723,None,455.1284796935818,None,0.006033743961779692,0.11464094281018333,456.6393439736333,None,455.6007655319463,456.4025672326152,456.3956059851844,None,0.8057310656895424,0.8196487495160909,,,,,,,,,,,,,,,3,001,2023_Nov_16_1138,experiment_old_ver,2020.1.3,143.72393192331958,
,,,,1,0.245,32,stimoli/disgust_image_004.jpg,,,,,,,,,3,0,3,0,0,19,19,19,,,,,,,,,,,,,,,,,,,,,,,,,,,,,,,,,,,,,,,,,,,,,,,,,,,,,,,,,,,,,,,,,,,,,,,,,,,,,3,001,2023_Nov_16_1138,experiment_old_ver,2020.1.3,143.72393192331958,
,,,,0,0.95,20,stimoli/neutral_face_001.jpg,,,,,,,,,3,0,3,0,0,20,20,20,,,,,,,,,,,,,,,,,,,,,,,,,,,,,,,,,,,,,,,,,,,,,457.1971065150401,None,0.005044563015871972,None,458.1025661421145,458.9071999389316,458.94881189878134,None,0.006341329488350311,0.11306131953278964,,,,,,,,,,,,,,,,,,,,,,,3,001,2023_Nov_16_1138,experiment_old_ver,2020.1.3,143.72393192331958,
,,,,0,0.95,10,stimoli/disgust_face_020.jpg,,,,,,,,,3,0,3,0,0,21,21,21,,,,,,,,,,,,,,,,,,,,,,,,,,,,,,,,,,,,,,,,,,,,,459.0534611871326,None,0.0049586058521526866,None,459.8614341632265,460.66229290096453,460.80842716990566,None,0.006072552980185719,0.11470188259136194,,,,,,,,,,,,,,,,,,,,,,,3,001,2023_Nov_16_1138,experiment_old_ver,2020.1.3,143.72393192331958,
,,,,1,0.245,12,stimoli/disgust_face_004.jpg,,,,,,,,,3,0,3,0,0,22,22,22,,,,,,,,,,,,,,,,,,,,,,,,,,,,,,,,,,,,,,,,,,,,,460.89917288680135,None,0.005321999389707344,None,461.70422716810936,None,461.9444290455679,None,0.006164924859149323,0.0147500570919874,,,,,,,,,,,,,,,,,,,,,,,3,001,2023_Nov_16_1138,experiment_old_ver,2020.1.3,143.72393192331958,
,,,,0,0.95,10,stimoli/disgust_face_014.jpg,,,,,,,,,3,0,3,0,0,23,23,23,0,0,0,0,,,,,,,,,,,,,,,,,,,,,,,,,,,,,,,,,,,,,,,,,462.50901331438035,None,0.005323923802279751,None,463.41217871905883,464.21585704425434,464.2574613064465,None,0.006409966926185007,0.11317935026727355,465.2606218359427,None,464.36214330983876,465.16327274849937,465.156313746219,None,0.8051393083396761,0.8190441627384644,,,,,,,,,,,,,,,3,001,2023_Nov_16_1138,experiment_old_ver,2020.1.3,143.72393192331958,
,,,,0,0.95,10,stimoli/disgust_face_014.jpg,,,,,,,,,3,0,3,0,0,23,23,23,,,,,,,,,,,,,,,,,,,,,,,,,,,,,,,,,,,,,,,,,,,,,,,,,,,,,,,,,,,,,,,,,,,,,,,,,,,,,3,001,2023_Nov_16_1138,experiment_old_ver,2020.1.3,143.72393192331958,
,,,,0,0.95,10,stimoli/disgust_face_018.jpg,,,,,,,,,3,0,3,0,0,24,24,24,,,,,,,,,,,,,,,,,,,,,,,,,,,,,,,,,,,,,,,,,,,,,465.95743741163733,None,0.005049694788795023,None,466.8620477306031,467.6663508489237,467.707969864958,None,0.006414777962163498,0.11329256996577897,,,,,,,,,,,,,,,,,,,,,,,3,001,2023_Nov_16_1138,experiment_old_ver,2020.1.3,143.72393192331958,
,,,,1,0.105,11,stimoli/disgust_face_001.jpg,,,,,,,,,3,0,3,0,0,25,25,25,,,,,,,,,,,,,,,,,,,,,,,,,,,,,,,,,,,,,,,,,,,,,467.8057044125535,None,0.005239891052042367,None,468.710766648107,None,468.82448993403096,None,0.006634481908804446,0.11526862255504966,,,,,,,,,,,,,,,,,,,,,,,3,001,2023_Nov_16_1138,experiment_old_ver,2020.1.3,143.72393192331958,
,,,,1,0.245,12,stimoli/disgust_face_018.jpg,,,,,,,,,3,0,3,0,0,26,26,26,,,,,,,,,,,,,,,,,,,,,,,,,,,,,,,,,,,,,,,,,,,,,469.5103847801938,None,0.005328734838258242,None,470.3137481429403,None,470.55378484151817,None,0.006494320412457455,0.01511280915747193,,,,,,,,,,,,,,,,,,,,,,,3,001,2023_Nov_16_1138,experiment_old_ver,2020.1.3,143.72393192331958,
,,,,1,0.105,11,stimoli/disgust_face_008.jpg,,,,,,,,,3,0,3,0,0,27,27,27,0,0,0,0,,,,,,,,,,,,,,,,,,,,,,,,,,,,,,,,,,,,,,,,,471.11768241521713,None,0.005279020805573964,None,472.0220954817323,None,472.02887554557157,None,0.006170377364469459,0.11268894539534813,473.724850184359,None,472.82637518634783,473.62750975677955,473.62057096084754,None,0.8049657903302432,0.818880587536114,,,,,,,,,,,,,,,3,001,2023_Nov_16_1138,experiment_old_ver,2020.1.3,143.72393192331958,
,,,,1,0.105,11,stimoli/disgust_face_008.jpg,,,,,,,,,3,0,3,0,0,27,27,27,,,,,0,0,0,0,,,,,,,,,,,,,,,,,,,,,,,,,,,,,,,,,,,,,,,,,,,,,,,,,,,,,,,474.4216689674113,None,n,1.5466994373009584,474.4216689674113,None,,,,,,,,,3,001,2023_Nov_16_1138,experiment_old_ver,2020.1.3,143.72393192331958,
,,,,1,0.105,11,stimoli/disgust_face_008.jpg,,,,,,,,,3,0,3,0,0,27,27,27,,,,,,,,,,,,,,,,,,,,,,,,,,,,,,,,,,,,,,,,,,,,,,,,,,,,,,,,,,,,,,,,,,,,,,,,,,,,,3,001,2023_Nov_16_1138,experiment_old_ver,2020.1.3,143.72393192331958,
,,,,1,0.105,11,stimoli/disgust_face_009.jpg,,,,,,,,,3,0,3,0,0,28,28,28,,,,,,,,,,,,,,,,,,,,,,,,,,,,,,,,,,,,,,,,,,,,,475.97516351105514,None,0.005305000397129334,None,476.8808694631398,None,476.9946062199636,None,0.006224902433132229,0.11482119626816711,,,,,,,,,,,,,,,,,,,,,,,3,001,2023_Nov_16_1138,experiment_old_ver,2020.1.3,143.72393192331958,
,,,,1,0.245,12,stimoli/disgust_face_017.jpg,,,,,,,,,3,0,3,0,0,29,29,29,,,,,,,,,,,,,,,,,,,,,,,,,,,,,,,,,,,,,,,,,,,,,477.68040035511876,None,0.00529537832699134,None,478.4837021366129,None,478.72372760944137,None,0.006344536845062976,0.014928065399544721,,,,,,,,,,,,,,,,,,,,,,,3,001,2023_Nov_16_1138,experiment_old_ver,2020.1.3,143.72393192331958,
,,,,1,0.105,11,stimoli/disgust_face_013.jpg,,,,,,,,,3,0,3,0,0,30,30,30,,,,,,,,,,,,,,,,,,,,,,,,,,,,,,,,,,,,,,,,,,,,,479.28763544668254,None,0.005307887018716428,None,480.19189167344484,None,480.1986717372841,None,0.006524790303956252,0.11338622478797333,,,,,,,,,,,,,,,,,,,,,,,3,001,2023_Nov_16_1138,experiment_old_ver,2020.1.3,143.72393192331958,
,,,,1,0.105,11,stimoli/disgust_face_019.jpg,,,,,,,,,3,0,3,0,0,31,31,31,0,0,0,0,,,,,,,,,,,,,,,,,,,,,,,,,,,,,,,,,,,,,,,,,480.9960883075164,None,0.005299547889990208,None,481.9007326244646,None,482.01446489098845,None,0.006364743193444156,0.1149985631045638,483.60536331014674,None,482.70684629575953,483.50799818591895,483.5010385421665,None,0.8050725953162328,0.8189934864994939,,,,,,,,,,,,,,,3,001,2023_Nov_16_1138,experiment_old_ver,2020.1.3,143.72393192331958,
,,,,1,0.105,11,stimoli/disgust_face_019.jpg,,,,,,,,,3,0,3,0,0,31,31,31,,,,,,,,,,,,,,,,,,,,,,,,,,,,,,,,,,,,,,,,,,,,,,,,,,,,,,,,,,,,,,,,,,,,,,,,,,,,,3,001,2023_Nov_16_1138,experiment_old_ver,2020.1.3,143.72393192331958,
,,,,1,0.105,11,stimoli/disgust_face_005.jpg,,,,,,,,,3,0,3,0,0,32,32,32,,,,,,,,,,,,,,,,,,,,,,,,,,,,,,,,,,,,,,,,,,,,,484.30214777447964,None,0.0049069674059865065,None,485.1038343310356,None,485.22453169381816,None,0.006331065946142189,0.014946026598408935,,,,,,,,,,,,,,,,,,,,,,,3,001,2023_Nov_16_1138,experiment_old_ver,2020.1.3,143.72393192331958,
,,,,0,0.95,10,stimoli/disgust_face_017.jpg,,,,,,,,,3,0,3,0,0,33,33,33,,,,,,,,,,,,,,,,,,,,,,,,,,,,,,,,,,,,,,,,,,,,,485.90696676408515,None,0.005291850233334117,None,486.8117922966985,487.61624551932255,487.6578629316785,None,0.0063429331667066435,0.11311263724383025,,,,,,,,,,,,,,,,,,,,,,,3,001,2023_Nov_16_1138,experiment_old_ver,2020.1.3,143.72393192331958,
,,,,1,0.105,11,stimoli/disgust_face_008.jpg,,,,,,,,,3,0,3,0,0,34,34,34,,,,,,,,,,,,,,,,,,,,,,,,,,,,,,,,,,,,,,,,,,,,,487.7695199741356,None,0.005322961595993547,None,488.6719351780339,None,488.67871524187314,None,0.006247995403100504,0.11283808749249147,,,,,,,,,,,,,,,,,,,,,,,3,001,2023_Nov_16_1138,experiment_old_ver,2020.1.3,143.72393192331958,
,,,,0,0.95,10,stimoli/disgust_face_004.jpg,,,,,,,,,3,0,3,0,0,35,35,35,0,0,0,0,,,,,,,,,,,,,,,,,,,,,,,,,,,,,,,,,,,,,,,,,489.47529308827416,None,0.004949304517140263,None,490.3806462310995,491.1800472251234,491.3261920783419,None,0.0063038034131750464,0.11494050994497229,492.3154804684794,None,491.41694773804375,492.2180826292115,492.21110759014573,None,0.8050655391307373,0.8189736008862383,,,,,,,,,,,,,,,3,001,2023_Nov_16_1138,experiment_old_ver,2020.1.3,143.72393192331958,
,,,,0,0.95,10,stimoli/disgust_face_004.jpg,,,,,,,,,3,0,3,0,0,35,35,35,,,,,,,,,,,,,,,,,,,,,,,,,,,,,,,,,,,,,,,,,,,,,,,,,,,,,,,,,,,,,,,,,,,,,,,,,,,,,3,001,2023_Nov_16_1138,experiment_old_ver,2020.1.3,143.72393192331958,
,,,,0,0.95,10,stimoli/disgust_face_002.jpg,,,,,,,,,3,0,3,0,0,36,36,36,,,,,,,,,,,,,,,,,,,,,,,,,,,,,,,,,,,,,,,,,,,,,493.0122668572267,None,0.004982661028407165,None,493.9116597687116,494.71361702619015,494.75523187266054,None,0.006366026136674918,0.11310975062133366,,,,,,,,,,,,,,,,,,,,,,,3,001,2023_Nov_16_1138,experiment_old_ver,2020.1.3,143.72393192331958,
,,,,0,0.95,10,stimoli/disgust_face_019.jpg,,,,,,,,,3,0,3,0,0,37,37,37,,,,,0,0,0,0,,,,,,,,,,,,,,,,,,,,,,,,,,,,,,,,,,,,,494.8598965563251,None,0.005307887017806934,None,495.6638151125526,496.4680399713652,496.60719278652624,None,0.006189300771438866,0.01481644938030513,,,,,,,,,496.71185875313404,None,n,2.0970789959174,496.71185875313404,None,,,,,,,,,3,001,2023_Nov_16_1138,experiment_old_ver,2020.1.3,143.72393192331958,
,,,,0,0.95,10,stimoli/disgust_face_019.jpg,,,,,,,,,3,0,3,0,0,37,37,37,,,,,,,,,,,,,,,,,,,,,,,,,,,,,,,,,,,,,,,,,,,,,,,,,,,,,,,,,,,,,,,,,,,,,,,,,,,,,3,001,2023_Nov_16_1138,experiment_old_ver,2020.1.3,143.72393192331958,
,,,,1,0.245,12,stimoli/disgust_face_009.jpg,,,,,,,,,3,0,3,0,0,38,38,38,,,,,,,,,,,,,,,,,,,,,,,,,,,,,,,,,,,,,,,,,,,,,498.8157203467026,None,0.005363053557630337,None,499.62050873812314,None,499.94755140751687,None,0.006134775703685591,0.11473235248104174,,,,,,,,,,,,,,,,,,,,,,,3,001,2023_Nov_16_1138,experiment_old_ver,2020.1.3,143.72393192331958,
,,,,1,0.105,11,stimoli/disgust_face_015.jpg,,,,,,,,,3,0,3,0,0,39,39,39,0,0,0,0,,,,,,,,,,,,,,,,,,,,,,,,,,,,,,,,,,,,,,,,,500.4199100528831,None,0.005311094376338588,None,501.22387030475056,None,501.3445686297403,None,0.0059840299290954135,0.014596745430935698,503.065982740571,None,502.02816700835683,502.8293150496884,502.82235861329264,None,0.8050462949895518,0.8189582055729261,,,,,,,,,,,,,,,3,001,2023_Nov_16_1138,experiment_old_ver,2020.1.3,143.72393192331958,
,,,,1,0.105,11,stimoli/disgust_face_015.jpg,,,,,,,,,3,0,3,0,0,39,39,39,,,,,,,,,,,,,,,,,,,,,,,,,,,,,,,,,,,,,,,,,,,,,,,,,,,,,,,,,,,,,,,,,,,,,,,,,,,,,3,001,2023_Nov_16_1138,experiment_old_ver,2020.1.3,143.72393192331958,
,,,,,,,,,,,,,,,,3,0,3,0,,,,,,,,,,,,,,,,,,,,,,,,,,,,,,,,,,,,,,,,,,,,,,,,,,,,,,,,,,,,,,,,,,,,,,,,,,,,,,,,,3,001,2023_Nov_16_1138,experiment_old_ver,2020.1.3,143.72393192331958,
,,,,1,0.245,42,stimoli/neutral_image_001.jpg,,,,,,,,,4,0,4,0,0,0,0,0,,,,,,,,,,,,,,,,,,,,,,,,,,,,,,,,,,,,,,,,,,,,,503.7552145208592,None,0.004939682446092775,None,504.6317890123655,None,504.87339827803436,None,0.0006806652818340808,0.011097839780632057,,,,,,,,,,,,,,,,,,,,,,,3,001,2023_Nov_16_1138,experiment_old_ver,2020.1.3,143.72393192331958,
,,,,0,0.95,30,stimoli/disgust_image_013.jpg,,,,,,,,,4,0,4,0,0,1,1,1,,,,,,,,,,,,,,,,,,,,,,,,,,,,,,,,,,,,,,,,,,,,,505.4374026567184,None,0.004934229939863144,None,506.3421704569073,507.1467263149525,507.18839472428255,None,0.005628013311252289,0.11160550023214455,,,,,,,,,,,,,,,,,,,,,,,3,001,2023_Nov_16_1138,experiment_old_ver,2020.1.3,143.72393192331958,
,,,,0,0.95,30,stimoli/disgust_image_007.jpg,,,,,,,,,4,0,4,0,0,2,2,2,,,,,,,,,,,,,,,,,,,,,,,,,,,,,,,,,,,,,,,,,,,,,507.27913755455756,None,0.0053422057380885235,None,508.0853817652778,508.8911769460319,509.030381078904,None,0.005786456743408053,0.01556600868843816,,,,,,,,,,,,,,,,,,,,,,,3,001,2023_Nov_16_1138,experiment_old_ver,2020.1.3,143.72393192331958,
,,,,0,0.95,30,stimoli/disgust_image_020.jpg,,,,,,,,,4,0,4,0,0,3,3,3,0,0,0,0,,,,,,,,,,,,,,,,,,,,,,,,,,,,,,,,,,,,,,,,,509.128168868624,None,0.005294095382851083,None,510.03185546880013,510.83592412933103,510.877569445692,None,0.0054897762292966945,0.11132902606732387,512.0276330155059,None,510.98930282324363,511.79087583936507,511.78389310264356,None,0.8055431145739931,0.8194784388633707,,,,,,,,,,,,,,,3,001,2023_Nov_16_1138,experiment_old_ver,2020.1.3,143.72393192331958,
,,,,0,0.95,30,stimoli/disgust_image_020.jpg,,,,,,,,,4,0,4,0,0,3,3,3,,,,,,,,,,,,,,,,,,,,,,,,,,,,,,,,,,,,,,,,,,,,,,,,,,,,,,,,,,,,,,,,,,,,,,,,,,,,,3,001,2023_Nov_16_1138,experiment_old_ver,2020.1.3,143.72393192331958,
,,,,0,0.95,30,stimoli/disgust_image_001.jpg,,,,,,,,,4,0,4,0,0,4,4,4,,,,,,,,,,,,,,,,,,,,,,,,,,,,,,,,,,,,,,,,,,,,,512.5854042167766,None,0.005042638601480576,None,513.3917808913375,514.1912886903465,514.3373113432665,None,0.006086665349357645,0.11579238393824198,,,,,,,,,,,,,,,,,,,,,,,3,001,2023_Nov_16_1138,experiment_old_ver,2020.1.3,143.72393192331958,
,,,,0,0.95,30,stimoli/disgust_image_018.jpg,,,,,,,,,4,0,4,0,0,5,5,5,,,,,,,,,,,,,,,,,,,,,,,,,,,,,,,,,,,,,,,,,,,,,514.4420401740699,None,0.0052591351932278485,None,515.245022502816,516.0490218844379,516.1881666812071,None,0.0046189788281481015,0.013324066209861485,,,,,,,,,,,,,,,,,,,,,,,3,001,2023_Nov_16_1138,experiment_old_ver,2020.1.3,143.72393192331958,
,,,,0,0.95,30,stimoli/disgust_image_017.jpg,,,,,,,,,4,0,4,0,0,6,6,6,,,,,,,,,,,,,,,,,,,,,,,,,,,,,,,,,,,,,,,,,,,,,516.2789216994379,None,0.0053232823320286116,None,517.0844330291047,517.8895504953443,518.0287164606691,None,0.005203679993428523,0.013830828602294787,,,,,,,,,,,,,,,,,,,,,,,3,001,2023_Nov_16_1138,experiment_old_ver,2020.1.3,143.72393192331958,
,,,,1,0.105,31,stimoli/disgust_image_009.jpg,,,,,,,,,4,0,4,0,0,7,7,7,0,0,0,0,,,,,,,,,,,,,,,,,,,,,,,,,,,,,,,,,,,,,,,,,518.126443631344,None,0.005316546883477713,None,519.0312412599524,None,519.0380213237916,None,0.002123013684467878,0.10459934980463004,520.7341386899618,None,519.8356627297435,520.6368082051886,520.6298325246516,None,0.8051187812552598,0.8190348614034519,,,,,,,,,,,,,,,3,001,2023_Nov_16_1138,experiment_old_ver,2020.1.3,143.72393192331958,
,,,,1,0.105,31,stimoli/disgust_image_009.jpg,,,,,,,,,4,0,4,0,0,7,7,7,,,,,,,,,,,,,,,,,,,,,,,,,,,,,,,,,,,,,,,,,,,,,,,,,,,,,,,,,,,,,,,,,,,,,,,,,,,,,3,001,2023_Nov_16_1138,experiment_old_ver,2020.1.3,143.72393192331958,
,,,,1,0.105,31,stimoli/disgust_image_015.jpg,,,,,,,,,4,0,4,0,0,8,8,8,,,,,,,,,,,,,,,,,,,,,,,,,,,,,,,,,,,,,,,,,,,,,521.4309629255204,None,0.005049053315815399,None,522.2338070171836,None,522.3545114361516,None,0.005726799904550717,0.014346571592795954,,,,,,,,,,,,,,,,,,,,,,,3,001,2023_Nov_16_1138,experiment_old_ver,2020.1.3,143.72393192331958,
,,,,0,0.95,40,stimoli/neutral_image_001.jpg,,,,,,,,,4,0,4,0,0,9,9,9,,,,,0,0,0,0,,,,,,,,,,,,,,,,,,,,,,,,,,,,,,,,,,,,,523.0375193403625,None,0.005247588707788964,None,523.9412524472136,524.7451998696533,524.7868211308371,None,0.006237090388822253,0.11282654100705258,,,,,,,,,524.8915028134934,None,p,1.4631477898738012,524.8915028134934,None,,,,,,,,,3,001,2023_Nov_16_1138,experiment_old_ver,2020.1.3,143.72393192331958,
,,,,0,0.95,40,stimoli/neutral_image_001.jpg,,,,,,,,,4,0,4,0,0,9,9,9,,,,,,,,,,,,,,,,,,,,,,,,,,,,,,,,,,,,,,,,,,,,,,,,,,,,,,,,,,,,,,,,,,,,,,,,,,,,,3,001,2023_Nov_16_1138,experiment_old_ver,2020.1.3,143.72393192331958,
,,,,1,0.105,31,stimoli/disgust_image_002.jpg,,,,,,,,,4,0,4,0,0,10,10,10,,,,,,,,,,,,,,,,,,,,,,,,,,,,,,,,,,,,,,,,,,,,,526.3614110702565,None,0.005277737863252696,None,527.2611583946791,None,527.2679384585183,None,0.0061065509617037605,0.11257091466086422,,,,,,,,,,,,,,,,,,,,,,,3,001,2023_Nov_16_1138,experiment_old_ver,2020.1.3,143.72393192331958,
,,,,0,0.95,30,stimoli/disgust_image_020.jpg,,,,,,,,,4,0,4,0,0,11,11,11,0,0,0,0,,,,,,,,,,,,,,,,,,,,,,,,,,,,,,,,,,,,,,,,,528.0632740955898,None,0.0052940953837605775,None,528.971142768437,529.7706810373365,529.9167957413995,None,0.005388103015320667,0.11406554297991534,531.0662255374893,None,530.0284126918959,530.8295681101481,530.8225677329638,None,0.8051200641975811,0.8190528226014067,,,,,,,,,,,,,,,3,001,2023_Nov_16_1138,experiment_old_ver,2020.1.3,143.72393192331958,
,,,,0,0.95,30,stimoli/disgust_image_020.jpg,,,,,,,,,4,0,4,0,0,11,11,11,,,,,,,,,,,,,,,,,,,,,,,,,,,,,,,,,,,,,,,,,,,,,,,,,,,,,,,,,,,,,,,,,,,,,,,,,,,,,3,001,2023_Nov_16_1138,experiment_old_ver,2020.1.3,143.72393192331958,
,,,,1,0.105,31,stimoli/disgust_image_015.jpg,,,,,,,,,4,0,4,0,0,12,12,12,,,,,,,,,,,,,,,,,,,,,,,,,,,,,,,,,,,,,,,,,,,,,531.6237266793078,None,0.005021149311687623,None,532.4304657851999,None,532.5442262764639,None,0.005770099222900171,0.11438531646399497,,,,,,,,,,,,,,,,,,,,,,,3,001,2023_Nov_16_1138,experiment_old_ver,2020.1.3,143.72393192331958,
,,,,0,0.95,30,stimoli/disgust_image_002.jpg,,,,,,,,,4,0,4,0,0,13,13,13,,,,,,,,,,,,,,,,,,,,,,,,,,,,,,,,,,,,,,,,,,,,,533.2305557194877,None,0.005270360943541164,None,534.0332734412887,534.8369475969203,534.9760821301472,None,0.006191545920046337,0.014836014255706687,,,,,,,,,,,,,,,,,,,,,,,3,001,2023_Nov_16_1138,experiment_old_ver,2020.1.3,143.72393192331958,
,,,,0,0.95,30,stimoli/disgust_image_016.jpg,,,,,,,,,4,0,4,0,0,14,14,14,,,,,,,,,,,,,,,,,,,,,,,,,,,,,,,,,,,,,,,,,,,,,535.0808035840291,None,0.005339639852536493,None,535.883410010546,536.687016490946,536.826178928178,None,0.005853169766851352,0.014465243798440497,,,,,,,,,,,,,,,,,,,,,,,3,001,2023_Nov_16_1138,experiment_old_ver,2020.1.3,143.72393192331958,
,,,,1,0.245,32,stimoli/disgust_image_009.jpg,,,,,,,,,4,0,4,0,0,15,15,15,0,0,0,0,,,,,,,,,,,,,,,,,,,,,,,,,,,,,,,,,,,,,,,,,536.9308484228786,None,0.005313018790729984,None,537.737481685992,None,537.9780030161985,None,0.0019414772832533345,0.010586587090074318,539.5812917758242,None,538.5434580824112,539.3446189531705,539.3376647619243,None,0.8050209568700666,0.8189168306698775,,,,,,,,,,,,,,,3,001,2023_Nov_16_1138,experiment_old_ver,2020.1.3,143.72393192331958,
,,,,1,0.245,32,stimoli/disgust_image_009.jpg,,,,,,,,,4,0,4,0,0,15,15,15,,,,,,,,,,,,,,,,,,,,,,,,,,,,,,,,,,,,,,,,,,,,,,,,,,,,,,,,,,,,,,,,,,,,,,,,,,,,,3,001,2023_Nov_16_1138,experiment_old_ver,2020.1.3,143.72393192331958,
,,,,0,0.95,30,stimoli/disgust_image_001.jpg,,,,,,,,,4,0,4,0,0,16,16,16,,,,,,,,,,,,,,,,,,,,,,,,,,,,,,,,,,,,,,,,,,,,,540.1387698246735,None,0.005060599801254284,None,540.9431512025021,541.7476047458622,541.8867363924676,None,0.005963502844679169,0.014612140744247881,,,,,,,,,,,,,,,,,,,,,,,3,001,2023_Nov_16_1138,experiment_old_ver,2020.1.3,143.72393192331958,
,,,,0,0.95,30,stimoli/disgust_image_013.jpg,,,,,,,,,4,0,4,0,0,17,17,17,,,,,,,,,,,,,,,,,,,,,,,,,,,,,,,,,,,,,,,,,,,,,541.9774875618705,None,0.0053245652743498795,None,542.783608610086,543.5889438558588,543.7281155944258,None,0.005656879524394753,0.0142708779694658,,,,,,,,,,,,,,,,,,,,,,,3,001,2023_Nov_16_1138,experiment_old_ver,2020.1.3,143.72393192331958,
,,,,0,0.95,30,stimoli/disgust_image_016.jpg,,,,,,,,,4,0,4,0,0,18,18,18,,,,,0,0,0,0,,,,,,,,,,,,,,,,,,,,,,,,,,,,,,,,,,,,,543.8258690654275,None,0.005237966638560465,None,544.7308418157236,545.5353620721071,545.5769964834537,None,0.005895827614040172,0.1121642218058696,,,,,,,,,545.6816618085904,None,n,1.6790981682142956,545.6816618085904,None,,,,,,,,,3,001,2023_Nov_16_1138,experiment_old_ver,2020.1.3,143.72393192331958,
,,,,0,0.95,30,stimoli/disgust_image_016.jpg,,,,,,,,,4,0,4,0,0,18,18,18,,,,,,,,,,,,,,,,,,,,,,,,,,,,,,,,,,,,,,,,,,,,,,,,,,,,,,,,,,,,,,,,,,,,,,,,,,,,,3,001,2023_Nov_16_1138,experiment_old_ver,2020.1.3,143.72393192331958,
,,,,0,0.95,30,stimoli/disgust_image_018.jpg,,,,,,,,,4,0,4,0,0,19,19,19,0,0,0,0,,,,,,,,,,,,,,,,,,,,,,,,,,,,,,,,,,,,,,,,,547.3674954263088,None,0.005303075983647432,None,548.1746453946207,548.9807029371696,549.1198275275895,None,0.004367842783722153,0.013029630846176588,550.129974963372,None,549.2315063800743,550.0326377431502,550.0256806652833,None,0.8049083786418123,0.8188180440765791,,,,,,,,,,,,,,,3,001,2023_Nov_16_1138,experiment_old_ver,2020.1.3,143.72393192331958,
,,,,0,0.95,30,stimoli/disgust_image_018.jpg,,,,,,,,,4,0,4,0,0,19,19,19,,,,,,,,,,,,,,,,,,,,,,,,,,,,,,,,,,,,,,,,,,,,,,,,,,,,,,,,,,,,,,,,,,,,,,,,,,,,,3,001,2023_Nov_16_1138,experiment_old_ver,2020.1.3,143.72393192331958,
,,,,0,0.95,10,stimoli/disgust_face_012.jpg,,,,,,,,,4,0,4,0,0,20,20,20,,,,,,,,,,,,,,,,,,,,,,,,,,,,,,,,,,,,,,,,,,,,,550.8268694400467,None,0.004933588467793015,None,551.6432787270132,552.4477486278929,552.5937853931839,None,0.0024816282602841966,0.011118719674414024,,,,,,,,,,,,,,,,,,,,,,,3,001,2023_Nov_16_1138,experiment_old_ver,2020.1.3,143.72393192331958,
,,,,1,0.105,11,stimoli/disgust_face_004.jpg,,,,,,,,,4,0,4,0,0,21,21,21,,,,,,,,,,,,,,,,,,,,,,,,,,,,,,,,,,,,,,,,,,,,,552.6914968478095,None,0.005270040207506099,None,553.5908310646628,None,553.597611128502,None,0.00619860210645129,0.11273128250741138,,,,,,,,,,,,,,,,,,,,,,,3,001,2023_Nov_16_1138,experiment_old_ver,2020.1.3,143.72393192331958,
,,,,1,0.245,12,stimoli/disgust_face_016.jpg,,,,,,,,,4,0,4,0,0,22,22,22,,,,,,,,,,,,,,,,,,,,,,,,,,,,,,,,,,,,,,,,,,,,,554.39275945593,None,0.005267474322863563,None,555.2998416848632,None,555.6342234283313,None,0.006338763602798281,0.11499471427578101,,,,,,,,,,,,,,,,,,,,,,,3,001,2023_Nov_16_1138,experiment_old_ver,2020.1.3,143.72393192331958,
,,,,1,0.245,12,stimoli/disgust_face_020.jpg,,,,,,,,,4,0,4,0,0,23,23,23,0,0,0,0,,,,,,,,,,,,,,,,,,,,,,,,,,,,,,,,,,,,,,,,,556.1000326508938,None,0.005272926827274205,None,556.9030627692582,None,557.14305296116,None,0.0058666406648626435,0.014512391943753755,558.7447216848116,None,557.7068847840428,558.5080517487795,558.5010885769343,None,0.8051585524808615,0.8190563506941544,,,,,,,,,,,,,,,3,001,2023_Nov_16_1138,experiment_old_ver,2020.1.3,143.72393192331958,
,,,,1,0.245,12,stimoli/disgust_face_020.jpg,,,,,,,,,4,0,4,0,0,23,23,23,,,,,,,,,,,,,,,,,,,,,,,,,,,,,,,,,,,,,,,,,,,,,,,,,,,,,,,,,,,,,,,,,,,,,,,,,,,,,3,001,2023_Nov_16_1138,experiment_old_ver,2020.1.3,143.72393192331958,
,,,,1,0.105,11,stimoli/disgust_face_009.jpg,,,,,,,,,4,0,4,0,0,24,24,24,,,,,,,,,,,,,,,,,,,,,,,,,,,,,,,,,,,,,,,,,,,,,559.3021869042332,None,0.0046003440857020905,None,560.1108180299643,None,560.224651328231,None,0.006291936191701097,0.11597680696104362,,,,,,,,,,,,,,,,,,,,,,,3,001,2023_Nov_16_1138,experiment_old_ver,2020.1.3,143.72393192331958,
,,,,1,0.245,12,stimoli/disgust_face_017.jpg,,,,,,,,,4,0,4,0,0,25,25,25,,,,,,,,,,,,,,,,,,,,,,,,,,,,,,,,,,,,,,,,,,,,,560.9115949801017,None,0.005253682686998218,None,561.7140692635139,None,561.954163053045,None,0.0063259341741286335,0.016096184784146317,,,,,,,,,,,,,,,,,,,,,,,3,001,2023_Nov_16_1138,experiment_old_ver,2020.1.3,143.72393192331958,
,,,,1,0.105,11,stimoli/disgust_face_015.jpg,,,,,,,,,4,0,4,0,0,26,26,26,,,,,,,,,,,,,,,,,,,,,,,,,,,,,,,,,,,,,,,,,,,,,562.5180157237464,None,0.005278379335322825,None,563.421047381642,None,563.4278274454812,None,0.0064721896496848785,0.11330443718543393,,,,,,,,,,,,,,,,,,,,,,,3,001,2023_Nov_16_1138,experiment_old_ver,2020.1.3,143.72393192331958,
,,,,1,0.105,11,stimoli/disgust_face_020.jpg,,,,,,,,,4,0,4,0,0,27,27,27,0,0,0,0,,,,,,,,,,,,,,,,,,,,,,,,,,,,,,,,,,,,,,,,,564.2248517559638,None,0.0051423874028841965,None,565.1312395921268,None,565.245070965979,None,0.006053950309251377,0.11585300298429502,566.9751638638647,None,565.936836237488,566.7383973863889,566.7314396670508,None,0.8054478560743519,0.8193536726803359,,,,,,,,,,,,,,,3,001,2023_Nov_16_1138,experiment_old_ver,2020.1.3,143.72393192331958,
,,,,1,0.105,11,stimoli/disgust_face_020.jpg,,,,,,,,,4,0,4,0,0,27,27,27,,,,,,,,,,,,,,,,,,,,,,,,,,,,,,,,,,,,,,,,,,,,,,,,,,,,,,,,,,,,,,,,,,,,,,,,,,,,,3,001,2023_Nov_16_1138,experiment_old_ver,2020.1.3,143.72393192331958,
,,,,1,0.245,12,stimoli/disgust_face_009.jpg,,,,,,,,,4,0,4,0,0,28,28,28,,,,,0,0,0,0,,,,,,,,,,,,,,,,,,,,,,,,,,,,,,,,,,,,,567.5330059477228,None,0.005042317867264501,None,568.340836837905,None,568.6687028358167,None,0.0062717298433199176,0.1159312624922677,,,,,,,,,569.141163154397,None,n,1.4491473562393367,569.141163154397,None,,,,,,,,,3,001,2023_Nov_16_1138,experiment_old_ver,2020.1.3,143.72393192331958,
,,,,1,0.245,12,stimoli/disgust_face_009.jpg,,,,,,,,,4,0,4,0,0,28,28,28,,,,,,,,,,,,,,,,,,,,,,,,,,,,,,,,,,,,,,,,,,,,,,,,,,,,,,,,,,,,,,,,,,,,,,,,,,,,,3,001,2023_Nov_16_1138,experiment_old_ver,2020.1.3,143.72393192331958,
,,,,0,0.95,10,stimoli/disgust_face_020.jpg,,,,,,,,,4,0,4,0,0,29,29,29,,,,,,,,,,,,,,,,,,,,,,,,,,,,,,,,,,,,,,,,,,,,,570.5970995230018,None,0.005366581650378066,None,571.500481424272,572.3042617434166,572.3458454785252,None,0.005896789819416881,0.11216774989679834,,,,,,,,,,,,,,,,,,,,,,,3,001,2023_Nov_16_1138,experiment_old_ver,2020.1.3,143.72393192331958,
,,,,0,0.95,10,stimoli/disgust_face_005.jpg,,,,,,,,,4,0,4,0,0,30,30,30,,,,,,,,,,,,,,,,,,,,,,,,,,,,,,,,,,,,,,,,,,,,,572.4505794410989,None,0.005343488680409791,None,573.2525549805123,574.0558102553314,574.1950025209828,None,0.0062717298433199176,0.014897274772920355,,,,,,,,,,,,,,,,,,,,,,,3,001,2023_Nov_16_1138,experiment_old_ver,2020.1.3,143.72393192331958,
,,,,0,0.95,10,stimoli/disgust_face_011.jpg,,,,,,,,,4,0,4,0,0,31,31,31,0,0,0,0,,,,,,,,,,,,,,,,,,,,,,,,,,,,,,,,,,,,,,,,,574.2996665631763,None,0.005304358926878194,None,575.10303088813,575.9070677958271,576.0462103474467,None,0.005719102247894625,0.014359721754772181,577.0493914040273,None,576.1509160852802,576.9520416751129,576.9450820313605,None,0.8047611609608794,0.8186525444607469,,,,,,,,,,,,,,,3,001,2023_Nov_16_1138,experiment_old_ver,2020.1.3,143.72393192331958,
,,,,0,0.95,10,stimoli/disgust_face_011.jpg,,,,,,,,,4,0,4,0,0,31,31,31,,,,,,,,,,,,,,,,,,,,,,,,,,,,,,,,,,,,,,,,,,,,,,,,,,,,,,,,,,,,,,,,,,,,,,,,,,,,,3,001,2023_Nov_16_1138,experiment_old_ver,2020.1.3,143.72393192331958,
,,,,0,0.95,10,stimoli/disgust_face_010.jpg,,,,,,,,,4,0,4,0,0,32,32,32,,,,,,,,,,,,,,,,,,,,,,,,,,,,,,,,,,,,,,,,,,,,,577.7462149981138,None,0.005078881735244067,None,578.6503471001643,579.4544471927929,579.4960575489633,None,0.006349668616167037,0.11305907438327267,,,,,,,,,,,,,,,,,,,,,,,3,001,2023_Nov_16_1138,experiment_old_ver,2020.1.3,143.72393192331958,
,,,,0,0.95,10,stimoli/disgust_face_013.jpg,,,,,,,,,4,0,4,0,0,33,33,33,,,,,,,,,,,,,,,,,,,,,,,,,,,,,,,,,,,,,,,,,,,,,579.5937824744888,None,0.005254644894193916,None,580.4989322708861,581.2985747788853,581.444697822076,None,0.006661423707555514,0.1153520138359454,,,,,,,,,,,,,,,,,,,,,,,3,001,2023_Nov_16_1138,experiment_old_ver,2020.1.3,143.72393192331958,
,,,,1,0.105,11,stimoli/disgust_face_020.jpg,,,,,,,,,4,0,4,0,0,34,34,34,,,,,,,,,,,,,,,,,,,,,,,,,,,,,,,,,,,,,,,,,,,,,581.5493772595828,None,0.005295057590956276,None,582.3526812862274,None,582.473402383451,None,0.005966389466266264,0.014628819000790827,,,,,,,,,,,,,,,,,,,,,,,3,001,2023_Nov_16_1138,experiment_old_ver,2020.1.3,143.72393192331958,
,,,,1,0.105,11,stimoli/disgust_face_004.jpg,,,,,,,,,4,0,4,0,0,35,35,35,0,0,0,0,,,,,,,,,,,,,,,,,,,,,,,,,,,,,,,,,,,,,,,,,583.1566495564866,None,0.005313660261890618,None,584.0604015867439,None,584.067181650583,None,0.006228430524060968,0.11295291086844372,585.9022128517511,None,584.8643701777391,585.6655570280891,585.6585983465438,None,0.8051110835986037,0.8190271637467958,,,,,,,,,,,,,,,3,001,2023_Nov_16_1138,experiment_old_ver,2020.1.3,143.72393192331958,
,,,,1,0.105,11,stimoli/disgust_face_004.jpg,,,,,,,,,4,0,4,0,0,35,35,35,,,,,,,,,,,,,,,,,,,,,,,,,,,,,,,,,,,,,,,,,,,,,,,,,,,,,,,,,,,,,,,,,,,,,,,,,,,,,3,001,2023_Nov_16_1138,experiment_old_ver,2020.1.3,143.72393192331958,
,,,,1,0.245,12,stimoli/disgust_face_013.jpg,,,,,,,,,4,0,4,0,0,36,36,36,,,,,,,,,,,,,,,,,,,,,,,,,,,,,,,,,,,,,,,,,,,,,586.4597021263498,None,0.00505707170941605,None,587.2620728121337,None,587.5019626137648,None,0.006416702374735905,0.015049624225866864,,,,,,,,,,,,,,,,,,,,,,,3,001,2023_Nov_16_1138,experiment_old_ver,2020.1.3,143.72393192331958,
,,,,0,0.95,10,stimoli/disgust_face_013.jpg,,,,,,,,,4,0,4,0,0,37,37,37,,,,,0,0,0,0,,,,,,,,,,,,,,,,,,,,,,,,,,,,,,,,,,,,,588.0655016049614,None,0.005270360942631669,None,588.9702094275772,589.7746090873407,589.8162095007049,None,0.0064718689127403195,0.11333298266163183,,,,,,,,,589.9209046542601,None,n,1.5676675330805665,589.9209046542601,None,,,,,,,,,3,001,2023_Nov_16_1138,experiment_old_ver,2020.1.3,143.72393192331958,
,,,,0,0.95,10,stimoli/disgust_face_013.jpg,,,,,,,,,4,0,4,0,0,37,37,37,,,,,,,,,,,,,,,,,,,,,,,,,,,,,,,,,,,,,,,,,,,,,,,,,,,,,,,,,,,,,,,,,,,,,,,,,,,,,3,001,2023_Nov_16_1138,experiment_old_ver,2020.1.3,143.72393192331958,
